"","prolificID","participant","trial","distance","stimNumber","response","RT"
"1","5b6f330a4b924d0001943d83","JN_1",1,4,34,1,2.737000227
"2","5b6f330a4b924d0001943d83","JN_1",2,6,11,1,3.435000181
"3","5b6f330a4b924d0001943d83","JN_1",3,10,18,0,2.344000101
"4","5b6f330a4b924d0001943d83","JN_1",4,3,12,1,2.70600009
"5","5b6f330a4b924d0001943d83","JN_1",5,6,7,1,2.299999952
"6","5b6f330a4b924d0001943d83","JN_1",6,4,29,1,1.638000011
"7","5b6f330a4b924d0001943d83","JN_1",7,2,13,1,1.539000273
"8","5b6f330a4b924d0001943d83","JN_1",8,20,28,0,3.131000042
"9","5b6f330a4b924d0001943d83","JN_1",9,1,26,1,1.61400032
"10","5b6f330a4b924d0001943d83","JN_1",10,3,38,1,1.502000093
"11","5b6f330a4b924d0001943d83","JN_1",11,20,21,1,1.90199995
"12","5b6f330a4b924d0001943d83","JN_1",12,1,39,1,2.378000259
"13","5b6f330a4b924d0001943d83","JN_1",13,4,5,0,1.539000034
"14","5b6f330a4b924d0001943d83","JN_1",14,10,3,0,1.850000381
"15","5b6f330a4b924d0001943d83","JN_1",15,20,6,1,1.408000231
"16","5b6f330a4b924d0001943d83","JN_1",16,3,17,0,4.251000166
"17","5b6f330a4b924d0001943d83","JN_1",17,3,30,1,1.429000139
"18","5b6f330a4b924d0001943d83","JN_1",18,20,24,0,3.643000126
"19","5b6f330a4b924d0001943d83","JN_1",19,2,11,1,2.282000065
"20","5b6f330a4b924d0001943d83","JN_1",20,10,5,0,3.053000212
"21","5b6f330a4b924d0001943d83","JN_1",21,4,4,0,2.868000269
"22","5b6f330a4b924d0001943d83","JN_1",22,10,2,0,1.640000105
"23","5b6f330a4b924d0001943d83","JN_1",23,10,6,0,1.18900013
"24","5b6f330a4b924d0001943d83","JN_1",24,3,27,1,0.926000118
"25","5b6f330a4b924d0001943d83","JN_1",25,3,14,1,1.351000309
"26","5b6f330a4b924d0001943d83","JN_1",26,6,15,1,1.761000156
"27","5b6f330a4b924d0001943d83","JN_1",27,4,36,1,1.401000023
"28","5b6f330a4b924d0001943d83","JN_1",28,3,18,1,3.867000341
"29","5b6f330a4b924d0001943d83","JN_1",29,6,3,0,0.973000288
"30","5b6f330a4b924d0001943d83","JN_1",30,10,21,0,2.501000166
"31","5b6f330a4b924d0001943d83","JN_1",31,6,22,0,1.321000099
"32","5b6f330a4b924d0001943d83","JN_1",32,1,24,0,0.602000237
"33","5b6f330a4b924d0001943d83","JN_1",33,2,1,1,1.505000114
"34","5b6f330a4b924d0001943d83","JN_1",34,20,20,1,1.768000126
"35","5b6f330a4b924d0001943d83","JN_1",35,2,15,1,1.541000128
"36","5b6f330a4b924d0001943d83","JN_1",36,2,32,1,1.174000263
"37","5b6f330a4b924d0001943d83","JN_1",37,3,31,0,1.384000063
"38","5b6f330a4b924d0001943d83","JN_1",38,4,4,1,3.358999968
"39","5b6f330a4b924d0001943d83","JN_1",39,10,19,0,0.451000214
"40","5b6f330a4b924d0001943d83","JN_1",40,6,5,0,1.617000341
"41","5b6f330a4b924d0001943d83","JN_1",41,3,23,0,1.964000225
"42","5b6f330a4b924d0001943d83","JN_1",42,20,38,1,1.32400012
"43","5b6f330a4b924d0001943d83","JN_1",43,2,4,0,2.253000259
"44","5b6f330a4b924d0001943d83","JN_1",44,20,13,1,0.801000118
"45","5b6f330a4b924d0001943d83","JN_1",45,2,5,0,2.761000156
"46","5b6f330a4b924d0001943d83","JN_1",46,10,4,0,0.874000311
"47","5b6f330a4b924d0001943d83","JN_1",47,3,35,1,1.015000105
"48","5b6f330a4b924d0001943d83","JN_1",48,10,4,1,4.701000214
"49","5b6f330a4b924d0001943d83","JN_1",49,4,27,1,1.587000132
"50","5b6f330a4b924d0001943d83","JN_1",50,2,2,0,1.68200016
"51","5b6f330a4b924d0001943d83","JN_1",51,20,25,1,1.974000216
"52","5b6f330a4b924d0001943d83","JN_1",52,20,22,1,1.7900002
"53","5b6f330a4b924d0001943d83","JN_1",53,3,7,1,5.645000219
"54","5b6f330a4b924d0001943d83","JN_1",54,10,26,1,1.626000166
"55","5b6f330a4b924d0001943d83","JN_1",55,3,37,1,4.377000332
"56","5b6f330a4b924d0001943d83","JN_1",56,6,26,1,1.385000229
"57","5b6f330a4b924d0001943d83","JN_1",57,10,23,1,0.552000046
"58","5b6f330a4b924d0001943d83","JN_1",58,4,15,1,2.810000181
"59","5b6f330a4b924d0001943d83","JN_1",59,10,25,0,3.200999975
"60","5b6f330a4b924d0001943d83","JN_1",60,20,8,0,3.319000244
"61","5b6f330a4b924d0001943d83","JN_1",61,20,12,0,5.392000198
"62","5b6f330a4b924d0001943d83","JN_1",62,4,1,0,4.885000229
"63","5b6f330a4b924d0001943d83","JN_1",63,3,22,0,4.835000277
"64","5b6f330a4b924d0001943d83","JN_1",64,2,31,1,0.849000216
"65","5b6f330a4b924d0001943d83","JN_1",65,3,1,1,3.358000278
"66","5b6f330a4b924d0001943d83","JN_1",66,10,5,1,2.852000237
"67","5b6f330a4b924d0001943d83","JN_1",67,2,25,1,1.090000391
"68","5b6f330a4b924d0001943d83","JN_1",68,3,24,1,2.968000174
"69","5b6f330a4b924d0001943d83","JN_1",69,1,8,1,4.317000151
"70","5b6f330a4b924d0001943d83","JN_1",70,1,30,0,3.07400012
"71","5b6f330a4b924d0001943d83","JN_1",71,10,16,0,0.327000141
"72","5b6f330a4b924d0001943d83","JN_1",72,1,11,0,1.961000204
"73","5b6f330a4b924d0001943d83","JN_1",73,10,30,0,4.160000086
"74","5b6f330a4b924d0001943d83","JN_1",74,4,19,1,1.721000195
"75","5b6f330a4b924d0001943d83","JN_1",75,6,35,1,1.501000166
"76","5b6f330a4b924d0001943d83","JN_1",76,4,6,1,2.782999992
"77","5b6f330a4b924d0001943d83","JN_1",77,20,1,1,4.884000301
"78","5b6f330a4b924d0001943d83","JN_1",78,20,39,1,3.004000187
"79","5b6f330a4b924d0001943d83","JN_1",79,2,20,0,3.507000208
"80","5b6f330a4b924d0001943d83","JN_1",80,20,2,0,1.636000156
"81","5b6f330a4b924d0001943d83","JN_1",81,1,3,0,3.594000101
"82","5b6f330a4b924d0001943d83","JN_1",82,2,14,1,2.073000193
"83","5b6f330a4b924d0001943d83","JN_1",83,6,29,0,1.407000065
"84","5b6f330a4b924d0001943d83","JN_1",84,6,39,1,1.285000324
"85","5b6f330a4b924d0001943d83","JN_1",85,1,5,1,0.664999962
"86","5b6f330a4b924d0001943d83","JN_1",86,1,13,1,1.220000267
"87","5b6f330a4b924d0001943d83","JN_1",87,1,21,0,0.869000196
"88","5b6f330a4b924d0001943d83","JN_1",88,20,19,0,1.822000265
"89","5b6f330a4b924d0001943d83","JN_1",89,20,3,0,1.654000282
"90","5b6f330a4b924d0001943d83","JN_1",90,2,8,1,1.235000134
"91","5b6f330a4b924d0001943d83","JN_1",91,1,23,0,1.789999962
"92","5b6f330a4b924d0001943d83","JN_1",92,6,24,0,0.462000132
"93","5b6f330a4b924d0001943d83","JN_1",93,10,38,0,1.147000313
"94","5b6f330a4b924d0001943d83","JN_1",94,6,20,1,0.569000244
"95","5b6f330a4b924d0001943d83","JN_1",95,3,39,1,1.535000324
"96","5b6f330a4b924d0001943d83","JN_1",96,2,26,1,1.401000261
"97","5b6f330a4b924d0001943d83","JN_1",97,20,15,1,2.061000109
"98","5b6f330a4b924d0001943d83","JN_1",98,10,24,0,1.596000195
"99","5b6f330a4b924d0001943d83","JN_1",99,20,2,0,1.436000109
"100","5b6f330a4b924d0001943d83","JN_1",100,4,20,1,0.969000101
"101","5b6f330a4b924d0001943d83","JN_1",101,2,5,0,2.190000296
"102","5b6f330a4b924d0001943d83","JN_1",102,1,22,0,2.669000149
"103","5b6f330a4b924d0001943d83","JN_1",103,10,2,0,2.396000147
"104","5b6f330a4b924d0001943d83","JN_1",104,4,30,0,3.643000126
"105","5b6f330a4b924d0001943d83","JN_1",105,4,32,0,2.041000128
"106","5b6f330a4b924d0001943d83","JN_1",106,4,11,0,3.240000248
"107","5b6f330a4b924d0001943d83","JN_1",107,1,4,1,3.277000189
"108","5b6f330a4b924d0001943d83","JN_1",108,20,32,1,1.833000183
"109","5b6f330a4b924d0001943d83","JN_1",109,1,28,1,1.399000168
"110","5b6f330a4b924d0001943d83","JN_1",110,4,16,1,1.771000147
"111","5b6f330a4b924d0001943d83","JN_1",111,1,38,1,2.370000124
"112","5b6f330a4b924d0001943d83","JN_1",112,4,25,1,0.671000242
"113","5b6f330a4b924d0001943d83","JN_1",113,2,33,1,1.131000042
"114","5b6f330a4b924d0001943d83","JN_1",114,20,5,1,5.013000011
"115","5b6f330a4b924d0001943d83","JN_1",115,10,13,1,3.212000132
"116","5b6f330a4b924d0001943d83","JN_1",116,2,28,1,1.65199995
"117","5b6f330a4b924d0001943d83","JN_1",117,2,34,1,1.544000149
"118","5b6f330a4b924d0001943d83","JN_1",118,3,13,1,0.953000069
"119","5b6f330a4b924d0001943d83","JN_1",119,6,2,0,1.730000257
"120","5b6f330a4b924d0001943d83","JN_1",120,3,32,1,3.884000301
"121","5b6f330a4b924d0001943d83","JN_1",121,6,34,0,2.128000021
"122","5b6f330a4b924d0001943d83","JN_1",122,20,26,1,4.362000227
"123","5b6f330a4b924d0001943d83","JN_1",123,4,5,0,2.899000168
"124","5b6f330a4b924d0001943d83","JN_1",124,4,35,0,5.968000174
"125","5b6f330a4b924d0001943d83","JN_1",125,1,4,0,2.663000345
"126","5b6f330a4b924d0001943d83","JN_1",126,1,29,1,1.707000256
"127","5b6f330a4b924d0001943d83","JN_1",128,10,12,0,1.632000208
"128","5b6f330a4b924d0001943d83","JN_1",129,6,36,0,5.013000011
"129","5b6f330a4b924d0001943d83","JN_1",130,2,6,1,2.213000059
"130","5b6f330a4b924d0001943d83","JN_1",131,1,19,1,1.796000242
"131","5b6f330a4b924d0001943d83","JN_1",132,20,11,1,2.154000282
"132","5b6f330a4b924d0001943d83","JN_1",133,3,9,1,2.004000187
"133","5b6f330a4b924d0001943d83","JN_1",134,6,3,1,3.795000076
"134","5b6f330a4b924d0001943d83","JN_1",135,4,14,1,2.54700017
"135","5b6f330a4b924d0001943d83","JN_1",136,1,6,1,3.700000286
"136","5b6f330a4b924d0001943d83","JN_1",137,3,26,1,2.975000143
"137","5b6f330a4b924d0001943d83","JN_1",138,2,39,1,1.391000032
"138","5b6f330a4b924d0001943d83","JN_1",139,20,5,1,1.55700016
"139","5b6f330a4b924d0001943d83","JN_1",140,3,33,1,4.769000053
"140","5b6f330a4b924d0001943d83","JN_1",141,10,36,0,1.560000181
"141","5b6f330a4b924d0001943d83","JN_1",142,10,1,0,0.721000195
"142","5b6f330a4b924d0001943d83","JN_1",143,20,7,0,2.34800005
"143","5b6f330a4b924d0001943d83","JN_1",144,4,3,0,3.669000149
"144","5b6f330a4b924d0001943d83","JN_1",145,3,3,0,2.904000282
"145","5b6f330a4b924d0001943d83","JN_1",146,2,19,1,5.002000332
"146","5b6f330a4b924d0001943d83","JN_1",147,1,35,0,0.578000307
"147","5b6f330a4b924d0001943d83","JN_1",148,20,37,0,3.729000092
"148","5b6f330a4b924d0001943d83","JN_1",149,4,8,0,5.940000057
"149","5b6f330a4b924d0001943d83","JN_1",151,4,3,0,1.403000116
"150","5b6f330a4b924d0001943d83","JN_1",152,1,18,1,1.531000137
"151","5b6f330a4b924d0001943d83","JN_1",153,1,25,1,2.587000132
"152","5b6f330a4b924d0001943d83","JN_1",154,3,16,1,2.620000124
"153","5b6f330a4b924d0001943d83","JN_1",155,3,4,0,3.105000019
"154","5b6f330a4b924d0001943d83","JN_1",156,1,17,0,2.98900032
"155","5b6f330a4b924d0001943d83","JN_1",157,10,15,0,0.851000309
"156","5b6f330a4b924d0001943d83","JN_1",158,6,5,0,0.648000002
"157","5b6f330a4b924d0001943d83","JN_1",159,1,32,0,1.837000132
"158","5b6f330a4b924d0001943d83","JN_1",160,10,7,0,1.72300005
"159","5b6f330a4b924d0001943d83","JN_1",161,4,1,0,5.637000084
"160","5b6f330a4b924d0001943d83","JN_1",162,20,3,0,3.491000175
"161","5b6f330a4b924d0001943d83","JN_1",163,3,20,1,3.90199995
"162","5b6f330a4b924d0001943d83","JN_1",164,2,2,1,4.369000196
"163","5b6f330a4b924d0001943d83","JN_1",165,1,1,0,7.224000216
"164","5b6f330a4b924d0001943d83","JN_1",166,6,6,1,7.719000101
"165","5b6f330a4b924d0001943d83","JN_1",167,6,23,1,5.121000051
"166","5b6f330a4b924d0001943d83","JN_1",168,6,2,0,4.636000156
"167","5b6f330a4b924d0001943d83","JN_1",171,10,10,1,4.325000286
"168","5b6f330a4b924d0001943d83","JN_1",172,20,40,1,2.511000156
"169","5b6f330a4b924d0001943d83","JN_1",173,10,8,1,1.870000124
"170","5b6f330a4b924d0001943d83","JN_1",174,20,27,1,1.101000071
"171","5b6f330a4b924d0001943d83","JN_1",175,6,25,1,1.561000109
"172","5b6f330a4b924d0001943d83","JN_1",177,4,2,0,2.704000235
"173","5b6f330a4b924d0001943d83","JN_1",178,4,7,0,3.938000202
"174","5b6f330a4b924d0001943d83","JN_1",179,4,9,0,3.020000219
"175","5b6f330a4b924d0001943d83","JN_1",180,6,4,0,3.042000294
"176","5b6f330a4b924d0001943d83","JN_1",181,3,34,0,5.055000067
"177","5b6f330a4b924d0001943d83","JN_1",182,20,14,1,3.260000229
"178","5b6f330a4b924d0001943d83","JN_1",183,2,17,1,5.657000065
"179","5b6f330a4b924d0001943d83","JN_1",184,10,20,1,3.950000048
"180","5b6f330a4b924d0001943d83","JN_1",185,2,7,0,4
"181","5b6f330a4b924d0001943d83","JN_1",186,4,2,1,5.213999987
"182","5b6f330a4b924d0001943d83","JN_1",187,3,10,1,3.958000183
"183","5b6f330a4b924d0001943d83","JN_1",188,6,18,1,3.572000027
"184","5b6f330a4b924d0001943d83","JN_1",189,3,40,0,3.43900013
"185","5b6f330a4b924d0001943d83","JN_1",190,20,4,0,0.779000044
"186","5b6f330a4b924d0001943d83","JN_1",191,20,4,1,5.413000107
"187","5b6f330a4b924d0001943d83","JN_1",193,2,27,1,3.826000214
"188","5b6f330a4b924d0001943d83","JN_1",194,1,37,1,5.351000071
"189","5b6f330a4b924d0001943d83","JN_1",195,3,25,1,3.279000044
"190","5b6f330a4b924d0001943d83","JN_1",196,4,24,1,5.195000172
"191","5b6f330a4b924d0001943d83","JN_1",197,3,4,1,5.652000189
"192","5b6f330a4b924d0001943d83","JN_1",198,2,23,0,4.335000277
"193","5b6f330a4b924d0001943d83","JN_1",199,10,28,1,5.338000298
"194","5b6f330a4b924d0001943d83","JN_1",201,6,12,0,0.441000223
"195","5b6f330a4b924d0001943d83","JN_1",202,20,23,1,6.094000101
"196","5b6f330a4b924d0001943d83","JN_1",203,4,18,1,4.84100008
"197","5b6f330a4b924d0001943d83","JN_1",204,4,12,1,3.67200017
"198","5b6f330a4b924d0001943d83","JN_1",205,3,2,1,2.378000259
"199","5b6f330a4b924d0001943d83","JN_1",207,3,6,0,5.338999987
"200","5b6f330a4b924d0001943d83","JN_1",208,6,1,0,0.719000101
"201","5b6f330a4b924d0001943d83","JN_1",209,2,29,0,5.009000301
"202","5b6f330a4b924d0001943d83","JN_1",210,6,13,0,4.936000109
"203","5b6f330a4b924d0001943d83","JN_1",211,10,9,0,5.452000141
"204","5b6f330a4b924d0001943d83","JN_1",212,4,22,0,5.990000248
"205","5b6f330a4b924d0001943d83","JN_1",213,2,12,1,3.20600009
"206","5b6f330a4b924d0001943d83","JN_1",214,6,8,1,5.518000126
"207","5b6f330a4b924d0001943d83","JN_1",215,6,28,0,5.462000132
"208","5b6f330a4b924d0001943d83","JN_1",216,4,26,0,5.508000135
"209","5b6f330a4b924d0001943d83","JN_1",217,6,4,0,3.238000154
"210","5b6f330a4b924d0001943d83","JN_1",218,10,22,0,5.49000001
"211","5b6f330a4b924d0001943d83","JN_1",219,20,33,0,6.744000196
"212","5b6f330a4b924d0001943d83","JN_1",220,3,19,0,4.512000322
"213","5b6f330a4b924d0001943d83","JN_1",221,1,5,1,2.068000317
"214","5b6f330a4b924d0001943d83","JN_1",222,10,34,0,3.801000118
"215","5b6f330a4b924d0001943d83","JN_1",223,6,31,1,5.863000154
"216","5b6f330a4b924d0001943d83","JN_1",224,10,40,0,5.068000317
"217","5b6f330a4b924d0001943d83","JN_1",225,20,16,0,6.328000069
"218","5b6f330a4b924d0001943d83","JN_1",226,4,21,1,4.809000254
"219","5b6f330a4b924d0001943d83","JN_1",227,1,20,1,6.832000017
"220","5b6f330a4b924d0001943d83","JN_1",228,1,2,1,1.971000195
"221","5b6f330a4b924d0001943d83","JN_1",229,6,1,0,4.678000212
"222","5b6f330a4b924d0001943d83","JN_1",230,1,14,1,4.604000092
"223","5b6f330a4b924d0001943d83","JN_1",231,4,39,1,3.002000093
"224","5b6f330a4b924d0001943d83","JN_1",232,1,7,1,4.679000378
"225","5b6f330a4b924d0001943d83","JN_1",233,4,13,1,4.595000267
"226","5b6f330a4b924d0001943d83","JN_1",234,20,30,1,1.075000048
"227","5b6f330a4b924d0001943d83","JN_1",235,4,40,1,5.639000177
"228","5b6f330a4b924d0001943d83","JN_1",236,3,28,1,4.357000113
"229","5b6f330a4b924d0001943d83","JN_1",237,1,40,1,4.254000187
"230","5b6f330a4b924d0001943d83","JN_1",238,4,10,1,3.746000051
"231","5b6f330a4b924d0001943d83","JN_1",239,1,36,1,5.163000107
"232","5b6f330a4b924d0001943d83","JN_1",240,4,28,1,2.709000111
"233","5b6f330a4b924d0001943d83","JN_1",241,1,33,1,1.855000257
"234","5b6f330a4b924d0001943d83","JN_1",242,2,16,0,3.995000124
"235","5b6f330a4b924d0001943d83","JN_1",243,3,36,0,3.420000076
"236","5b6f330a4b924d0001943d83","JN_1",244,10,33,0,3.650000334
"237","5b6f330a4b924d0001943d83","JN_1",245,6,30,1,3.04700017
"238","5b6f330a4b924d0001943d83","JN_1",246,6,16,1,4.918000221
"239","5b6f330a4b924d0001943d83","JN_1",247,6,33,1,2.97300005
"240","5b6f330a4b924d0001943d83","JN_1",248,3,5,1,6.087000132
"241","5b6f330a4b924d0001943d83","JN_1",249,2,40,1,3.442000151
"242","5b6f330a4b924d0001943d83","JN_1",250,4,33,1,2.385000229
"243","5b6f330a4b924d0001943d83","JN_1",251,6,10,0,3.419000149
"244","5b6f330a4b924d0001943d83","JN_1",252,10,35,0,1.502000093
"245","5b6f330a4b924d0001943d83","JN_1",253,6,38,0,4.376000166
"246","5b6f330a4b924d0001943d83","JN_1",254,1,12,0,1.751000166
"247","5b6f330a4b924d0001943d83","JN_1",255,10,29,0,5.31400013
"248","5b6f330a4b924d0001943d83","JN_1",256,3,5,1,4.891000271
"249","5b6f330a4b924d0001943d83","JN_1",257,2,3,1,0.663000107
"250","5b6f330a4b924d0001943d83","JN_1",258,2,35,1,1.452000141
"251","5b6f330a4b924d0001943d83","JN_1",259,4,23,1,3.498000145
"252","5b6f330a4b924d0001943d83","JN_1",260,20,18,0,1.334000349
"253","5b6f330a4b924d0001943d83","JN_1",261,20,35,0,2.620000124
"254","5b6f330a4b924d0001943d83","JN_1",262,1,3,0,3.397000313
"255","5b6f330a4b924d0001943d83","JN_1",263,2,22,0,3.902000189
"256","5b6f330a4b924d0001943d83","JN_1",264,20,36,0,2.976000071
"257","5b6f330a4b924d0001943d83","JN_1",265,1,1,0,5.409000158
"258","5b6f330a4b924d0001943d83","JN_1",266,6,27,1,7.936000109
"259","5b6f330a4b924d0001943d83","JN_1",268,4,37,1,4.054000378
"260","5b6f330a4b924d0001943d83","JN_1",269,1,9,0,6.579000235
"261","5b6f330a4b924d0001943d83","JN_1",270,2,9,0,3.634000301
"262","5b6f330a4b924d0001943d83","JN_1",271,2,1,0,5.553000212
"263","5b6f330a4b924d0001943d83","JN_1",272,20,17,0,2.945000172
"264","5b6f330a4b924d0001943d83","JN_1",273,6,9,0,2.93900013
"265","5b6f330a4b924d0001943d83","JN_1",274,1,34,0,2.219000101
"266","5b6f330a4b924d0001943d83","JN_1",275,2,37,0,3.329000235
"267","5b6f330a4b924d0001943d83","JN_1",276,3,3,0,3.580000162
"268","5b6f330a4b924d0001943d83","JN_1",277,6,37,0,2.924999952
"269","5b6f330a4b924d0001943d83","JN_1",278,3,11,1,0.917999983
"270","5b6f330a4b924d0001943d83","JN_1",279,20,34,1,1.84800005
"271","5b6f330a4b924d0001943d83","JN_1",280,20,29,1,0.553000212
"272","5b6f330a4b924d0001943d83","JN_1",281,3,2,0,2.846000195
"273","5b6f330a4b924d0001943d83","JN_1",282,1,2,1,1.244000196
"274","5b6f330a4b924d0001943d83","JN_1",283,20,31,0,5.274000168
"275","5b6f330a4b924d0001943d83","JN_1",284,2,24,0,2.568000078
"276","5b6f330a4b924d0001943d83","JN_1",285,2,18,1,5.269000053
"277","5b6f330a4b924d0001943d83","JN_1",286,20,9,1,6.097000122
"278","5b6f330a4b924d0001943d83","JN_1",287,2,10,1,4.741000175
"279","5b6f330a4b924d0001943d83","JN_1",288,1,15,0,5.247000217
"280","5b6f330a4b924d0001943d83","JN_1",289,6,19,0,6.285000086
"281","5b6f330a4b924d0001943d83","JN_1",290,3,1,1,6.937000036
"282","5b6f330a4b924d0001943d83","JN_1",291,2,38,0,3.425000191
"283","5b6f330a4b924d0001943d83","JN_1",292,10,14,0,8.206000328
"284","5b6f330a4b924d0001943d83","JN_1",294,6,14,0,5.542999983
"285","5b6f330a4b924d0001943d83","JN_1",295,1,10,1,1.337000132
"286","5b6f330a4b924d0001943d83","JN_1",296,2,3,1,1.771000147
"287","5b6f330a4b924d0001943d83","JN_1",297,6,17,1,2.30700016
"288","5b6f330a4b924d0001943d83","JN_1",298,4,17,1,3.926000118
"289","5b6f330a4b924d0001943d83","JN_1",300,1,31,1,2.712000132
"290","5b6f330a4b924d0001943d83","JN_1",301,2,4,1,1.809000015
"291","5b6f330a4b924d0001943d83","JN_1",302,6,40,1,1.903000116
"292","5b6f330a4b924d0001943d83","JN_1",303,1,27,1,4.153000116
"293","5b6f330a4b924d0001943d83","JN_1",304,2,36,1,3.578000069
"294","5b6f330a4b924d0001943d83","JN_1",305,3,29,1,3.860000134
"295","5b6f330a4b924d0001943d83","JN_1",306,10,3,1,6.437000275
"296","5b6f330a4b924d0001943d83","JN_1",307,3,15,0,1.845000267
"297","5b6f330a4b924d0001943d83","JN_1",308,3,21,1,3.460000038
"298","5b6f330a4b924d0001943d83","JN_1",309,20,1,1,2.368000031
"299","5b6f330a4b924d0001943d83","JN_1",310,10,37,1,4.28000021
"300","5b6f330a4b924d0001943d83","JN_1",311,2,30,1,4.660000324
"301","5b6f330a4b924d0001943d83","JN_1",312,10,39,1,5.018000126
"302","5b6f330a4b924d0001943d83","JN_1",313,2,21,1,7.679000139
"303","5b6f330a4b924d0001943d83","JN_1",315,6,32,0,1.981000185
"304","5d30e6ef53416100199ad7bf","JN_10",1,1,35,1,2.24000001
"305","5d30e6ef53416100199ad7bf","JN_10",2,6,40,0,2.152999878
"306","5d30e6ef53416100199ad7bf","JN_10",3,4,10,1,1.405999899
"307","5d30e6ef53416100199ad7bf","JN_10",4,3,2,0,1.736000061
"308","5d30e6ef53416100199ad7bf","JN_10",5,2,4,1,1.751999855
"309","5d30e6ef53416100199ad7bf","JN_10",6,10,12,0,1.56799984
"310","5d30e6ef53416100199ad7bf","JN_10",7,2,7,1,2.120999813
"311","5d30e6ef53416100199ad7bf","JN_10",8,20,2,0,1.552999973
"312","5d30e6ef53416100199ad7bf","JN_10",9,1,39,1,2.052999973
"313","5d30e6ef53416100199ad7bf","JN_10",10,3,3,1,1.218999863
"314","5d30e6ef53416100199ad7bf","JN_10",11,10,39,0,1.572000027
"315","5d30e6ef53416100199ad7bf","JN_10",12,2,30,1,1.260999918
"316","5d30e6ef53416100199ad7bf","JN_10",13,2,1,1,1.15199995
"317","5d30e6ef53416100199ad7bf","JN_10",14,20,20,1,1.447999954
"318","5d30e6ef53416100199ad7bf","JN_10",15,1,29,1,1.870999813
"319","5d30e6ef53416100199ad7bf","JN_10",16,20,29,1,5.255999804
"320","5d30e6ef53416100199ad7bf","JN_10",17,20,5,0,2.542999983
"321","5d30e6ef53416100199ad7bf","JN_10",19,1,13,1,1.526000023
"322","5d30e6ef53416100199ad7bf","JN_10",20,10,37,0,1.434999943
"323","5d30e6ef53416100199ad7bf","JN_10",21,2,28,1,1.526000023
"324","5d30e6ef53416100199ad7bf","JN_10",22,3,12,1,4.504999876
"325","5d30e6ef53416100199ad7bf","JN_10",23,20,39,1,2.852999926
"326","5d30e6ef53416100199ad7bf","JN_10",24,3,34,0,1.95299983
"327","5d30e6ef53416100199ad7bf","JN_10",25,20,18,1,1.301999807
"328","5d30e6ef53416100199ad7bf","JN_10",26,1,14,0,1.586999893
"329","5d30e6ef53416100199ad7bf","JN_10",27,20,11,0,1.417999744
"330","5d30e6ef53416100199ad7bf","JN_10",28,6,35,0,1.417999983
"331","5d30e6ef53416100199ad7bf","JN_10",29,4,28,1,2.174999952
"332","5d30e6ef53416100199ad7bf","JN_10",30,10,27,0,2.854000092
"333","5d30e6ef53416100199ad7bf","JN_10",31,2,2,1,2.139999866
"334","5d30e6ef53416100199ad7bf","JN_10",32,20,25,1,2.037999868
"335","5d30e6ef53416100199ad7bf","JN_10",33,4,23,1,2.585999966
"336","5d30e6ef53416100199ad7bf","JN_10",34,6,18,1,1.701999903
"337","5d30e6ef53416100199ad7bf","JN_10",35,4,39,1,1.320999861
"338","5d30e6ef53416100199ad7bf","JN_10",36,20,31,1,1.904000044
"339","5d30e6ef53416100199ad7bf","JN_10",37,6,20,1,1.636999846
"340","5d30e6ef53416100199ad7bf","JN_10",39,20,5,1,1.934999943
"341","5d30e6ef53416100199ad7bf","JN_10",40,1,6,1,3.485999823
"342","5d30e6ef53416100199ad7bf","JN_10",41,1,3,1,1.522000074
"343","5d30e6ef53416100199ad7bf","JN_10",42,1,20,1,1.601999998
"344","5d30e6ef53416100199ad7bf","JN_10",43,4,16,1,1.301999807
"345","5d30e6ef53416100199ad7bf","JN_10",44,1,27,0,2.101999998
"346","5d30e6ef53416100199ad7bf","JN_10",45,4,11,0,1.118999958
"347","5d30e6ef53416100199ad7bf","JN_10",46,4,34,0,2.539999962
"348","5d30e6ef53416100199ad7bf","JN_10",47,3,11,1,1.835999966
"349","5d30e6ef53416100199ad7bf","JN_10",48,20,2,0,1.65899992
"350","5d30e6ef53416100199ad7bf","JN_10",49,1,33,1,1.53399992
"351","5d30e6ef53416100199ad7bf","JN_10",50,10,2,1,2.152999878
"352","5d30e6ef53416100199ad7bf","JN_10",51,3,38,1,2.003000021
"353","5d30e6ef53416100199ad7bf","JN_10",52,4,36,0,1.792000055
"354","5d30e6ef53416100199ad7bf","JN_10",53,10,11,0,1.734999895
"355","5d30e6ef53416100199ad7bf","JN_10",54,10,30,1,1.784999847
"356","5d30e6ef53416100199ad7bf","JN_10",55,3,5,1,2.007999897
"357","5d30e6ef53416100199ad7bf","JN_10",56,1,3,1,1.654999971
"358","5d30e6ef53416100199ad7bf","JN_10",57,2,6,1,1.605999947
"359","5d30e6ef53416100199ad7bf","JN_10",58,6,39,1,1.434999943
"360","5d30e6ef53416100199ad7bf","JN_10",59,3,10,1,1.85800004
"361","5d30e6ef53416100199ad7bf","JN_10",60,3,13,0,1.541999817
"362","5d30e6ef53416100199ad7bf","JN_10",61,2,29,1,1.3349998
"363","5d30e6ef53416100199ad7bf","JN_10",62,6,2,1,1.506000042
"364","5d30e6ef53416100199ad7bf","JN_10",63,20,38,1,1.402999878
"365","5d30e6ef53416100199ad7bf","JN_10",64,1,8,1,1.4599998
"366","5d30e6ef53416100199ad7bf","JN_10",65,1,4,1,2.921999931
"367","5d30e6ef53416100199ad7bf","JN_10",66,1,21,1,1.552999973
"368","5d30e6ef53416100199ad7bf","JN_10",67,3,36,1,1.618999958
"369","5d30e6ef53416100199ad7bf","JN_10",68,20,30,1,1.74000001
"370","5d30e6ef53416100199ad7bf","JN_10",69,6,23,1,2.202000141
"371","5d30e6ef53416100199ad7bf","JN_10",70,4,3,1,2.351999998
"372","5d30e6ef53416100199ad7bf","JN_10",71,2,9,0,1.804999828
"373","5d30e6ef53416100199ad7bf","JN_10",72,3,22,1,1.90199995
"374","5d30e6ef53416100199ad7bf","JN_10",73,2,38,1,1.90199995
"375","5d30e6ef53416100199ad7bf","JN_10",74,2,39,1,2.226999998
"376","5d30e6ef53416100199ad7bf","JN_10",75,2,20,0,2.541999817
"377","5d30e6ef53416100199ad7bf","JN_10",76,20,19,0,1.672999859
"378","5d30e6ef53416100199ad7bf","JN_10",77,10,7,0,2.651999712
"379","5d30e6ef53416100199ad7bf","JN_10",78,10,38,0,2.553999901
"380","5d30e6ef53416100199ad7bf","JN_10",79,3,20,1,1.784999847
"381","5d30e6ef53416100199ad7bf","JN_10",80,4,37,1,2.220000029
"382","5d30e6ef53416100199ad7bf","JN_10",81,20,17,1,1.768999815
"383","5d30e6ef53416100199ad7bf","JN_10",82,6,34,1,2.38499999
"384","5d30e6ef53416100199ad7bf","JN_10",83,1,12,1,1.585999966
"385","5d30e6ef53416100199ad7bf","JN_10",84,3,39,1,2.034999847
"386","5d30e6ef53416100199ad7bf","JN_10",85,20,40,1,2.851999998
"387","5d30e6ef53416100199ad7bf","JN_10",86,1,30,1,1.987999916
"388","5d30e6ef53416100199ad7bf","JN_10",87,10,5,1,2.441999912
"389","5d30e6ef53416100199ad7bf","JN_10",88,2,5,1,1.855999947
"390","5d30e6ef53416100199ad7bf","JN_10",89,10,24,1,2.97300005
"391","5d30e6ef53416100199ad7bf","JN_10",90,3,1,1,1.54399991
"392","5d30e6ef53416100199ad7bf","JN_10",91,10,13,1,3.14199996
"393","5d30e6ef53416100199ad7bf","JN_10",92,4,5,1,2.852999926
"394","5d30e6ef53416100199ad7bf","JN_10",93,1,10,1,1.438999891
"395","5d30e6ef53416100199ad7bf","JN_10",94,20,3,1,2.875999928
"396","5d30e6ef53416100199ad7bf","JN_10",95,1,25,1,1.623999834
"397","5d30e6ef53416100199ad7bf","JN_10",96,6,14,1,2.284999847
"398","5d30e6ef53416100199ad7bf","JN_10",97,10,17,1,2.784999847
"399","5d30e6ef53416100199ad7bf","JN_10",99,2,31,1,2.770999908
"400","5d30e6ef53416100199ad7bf","JN_10",100,6,3,1,1.585000038
"401","5d30e6ef53416100199ad7bf","JN_10",101,4,7,1,1.922999859
"402","5d30e6ef53416100199ad7bf","JN_10",102,3,4,0,2.892999887
"403","5d30e6ef53416100199ad7bf","JN_10",103,6,10,1,2.019999981
"404","5d30e6ef53416100199ad7bf","JN_10",104,10,1,1,1.835999966
"405","5d30e6ef53416100199ad7bf","JN_10",105,3,14,0,1.365999937
"406","5d30e6ef53416100199ad7bf","JN_10",106,10,26,1,1.984999895
"407","5d30e6ef53416100199ad7bf","JN_10",107,6,38,1,1.618999958
"408","5d30e6ef53416100199ad7bf","JN_10",108,6,22,1,2.553999901
"409","5d30e6ef53416100199ad7bf","JN_10",109,6,27,1,2.787999868
"410","5d30e6ef53416100199ad7bf","JN_10",110,6,15,1,1.889999866
"411","5d30e6ef53416100199ad7bf","JN_10",111,10,32,1,2.373999834
"412","5d30e6ef53416100199ad7bf","JN_10",112,1,18,1,2.752999783
"413","5d30e6ef53416100199ad7bf","JN_10",113,20,13,0,2.450999975
"414","5d30e6ef53416100199ad7bf","JN_10",114,2,17,1,1.701999903
"415","5d30e6ef53416100199ad7bf","JN_10",115,6,36,1,2.093999863
"416","5d30e6ef53416100199ad7bf","JN_10",116,6,17,0,1.905999899
"417","5d30e6ef53416100199ad7bf","JN_10",117,3,30,1,1.90899992
"418","5d30e6ef53416100199ad7bf","JN_10",118,10,10,1,1.801999807
"419","5d30e6ef53416100199ad7bf","JN_10",119,3,6,1,2.253999949
"420","5d30e6ef53416100199ad7bf","JN_10",120,2,16,1,2.707000017
"421","5d30e6ef53416100199ad7bf","JN_10",121,6,4,1,1.267999887
"422","5d30e6ef53416100199ad7bf","JN_10",122,3,28,1,2.101999998
"423","5d30e6ef53416100199ad7bf","JN_10",123,3,1,1,4.951999903
"424","5d30e6ef53416100199ad7bf","JN_10",124,6,5,1,3.018999815
"425","5d30e6ef53416100199ad7bf","JN_10",125,6,1,1,2.691999912
"426","5d30e6ef53416100199ad7bf","JN_10",126,3,23,1,3.237999916
"427","5d30e6ef53416100199ad7bf","JN_10",127,20,10,1,4.11899972
"428","5d30e6ef53416100199ad7bf","JN_10",128,3,3,1,5.217999935
"429","5d30e6ef53416100199ad7bf","JN_10",129,10,23,0,1.602999926
"430","5d30e6ef53416100199ad7bf","JN_10",130,3,40,1,1.403000116
"431","5d30e6ef53416100199ad7bf","JN_10",131,2,26,1,1.736000061
"432","5d30e6ef53416100199ad7bf","JN_10",132,4,24,1,1.69299984
"433","5d30e6ef53416100199ad7bf","JN_10",133,4,32,1,1.551000118
"434","5d30e6ef53416100199ad7bf","JN_10",134,1,40,1,2.284999847
"435","5d30e6ef53416100199ad7bf","JN_10",135,2,37,1,2.204999924
"436","5d30e6ef53416100199ad7bf","JN_10",136,20,32,1,1.301999807
"437","5d30e6ef53416100199ad7bf","JN_10",137,1,31,0,2.069000006
"438","5d30e6ef53416100199ad7bf","JN_10",138,6,25,0,2.385999918
"439","5d30e6ef53416100199ad7bf","JN_10",139,20,21,1,2.036000013
"440","5d30e6ef53416100199ad7bf","JN_10",140,6,31,1,2.65199995
"441","5d30e6ef53416100199ad7bf","JN_10",141,3,37,1,1.519999981
"442","5d30e6ef53416100199ad7bf","JN_10",142,20,35,1,1.984999895
"443","5d30e6ef53416100199ad7bf","JN_10",143,2,12,1,3.31799984
"444","5d30e6ef53416100199ad7bf","JN_10",144,20,26,1,1.66899991
"445","5d30e6ef53416100199ad7bf","JN_10",145,10,3,1,1.700999975
"446","5d30e6ef53416100199ad7bf","JN_10",146,20,14,1,1.884999752
"447","5d30e6ef53416100199ad7bf","JN_10",147,3,4,1,2.769999981
"448","5d30e6ef53416100199ad7bf","JN_10",148,2,22,1,3.220000029
"449","5d30e6ef53416100199ad7bf","JN_10",149,2,40,1,2.585000038
"450","5d30e6ef53416100199ad7bf","JN_10",150,4,14,1,2.378000021
"451","5d30e6ef53416100199ad7bf","JN_10",151,10,2,1,1.471999884
"452","5d30e6ef53416100199ad7bf","JN_10",152,10,25,1,4.019999743
"453","5d30e6ef53416100199ad7bf","JN_10",153,2,4,1,2.367000103
"454","5d30e6ef53416100199ad7bf","JN_10",154,2,34,1,2.984999895
"455","5d30e6ef53416100199ad7bf","JN_10",155,6,5,1,2.468999863
"456","5d30e6ef53416100199ad7bf","JN_10",156,4,13,1,2.477999926
"457","5d30e6ef53416100199ad7bf","JN_10",157,1,19,1,1.687999964
"458","5d30e6ef53416100199ad7bf","JN_10",158,2,23,1,1.339999914
"459","5d30e6ef53416100199ad7bf","JN_10",159,2,10,1,3.019999981
"460","5d30e6ef53416100199ad7bf","JN_10",160,20,34,1,4.052999973
"461","5d30e6ef53416100199ad7bf","JN_10",161,20,24,1,2.368999958
"462","5d30e6ef53416100199ad7bf","JN_10",162,20,4,1,2.641000032
"463","5d30e6ef53416100199ad7bf","JN_10",163,1,16,1,1.924000025
"464","5d30e6ef53416100199ad7bf","JN_10",164,6,4,0,2.453000069
"465","5d30e6ef53416100199ad7bf","JN_10",165,20,33,1,1.686000109
"466","5d30e6ef53416100199ad7bf","JN_10",166,3,25,1,2.351999998
"467","5d30e6ef53416100199ad7bf","JN_10",167,10,9,1,4.705999851
"468","5d30e6ef53416100199ad7bf","JN_10",168,10,40,1,2.971999884
"469","5d30e6ef53416100199ad7bf","JN_10",169,10,4,1,1.690999985
"470","5d30e6ef53416100199ad7bf","JN_10",170,6,33,1,4.670000076
"471","5d30e6ef53416100199ad7bf","JN_10",171,1,1,0,2.885999918
"472","5d30e6ef53416100199ad7bf","JN_10",172,4,27,1,1.93599987
"473","5d30e6ef53416100199ad7bf","JN_10",173,4,21,1,5.40199995
"474","5d30e6ef53416100199ad7bf","JN_10",174,4,35,1,4.441999912
"475","5d30e6ef53416100199ad7bf","JN_10",175,6,2,1,1.575999975
"476","5d30e6ef53416100199ad7bf","JN_10",176,6,19,1,1.502999783
"477","5d30e6ef53416100199ad7bf","JN_10",177,2,1,1,2.784999847
"478","5d30e6ef53416100199ad7bf","JN_10",178,1,34,0,1.618999958
"479","5d30e6ef53416100199ad7bf","JN_10",179,6,8,1,2.176000118
"480","5d30e6ef53416100199ad7bf","JN_10",181,10,5,1,1.351999998
"481","5d30e6ef53416100199ad7bf","JN_10",182,1,15,1,1.427000046
"482","5d30e6ef53416100199ad7bf","JN_10",183,2,19,1,1.233999968
"483","5d30e6ef53416100199ad7bf","JN_10",184,6,13,1,2.003999949
"484","5d30e6ef53416100199ad7bf","JN_10",185,3,2,1,1.269999981
"485","5d30e6ef53416100199ad7bf","JN_10",186,6,16,1,1.40199995
"486","5d30e6ef53416100199ad7bf","JN_10",187,3,29,1,1.635999918
"487","5d30e6ef53416100199ad7bf","JN_10",188,1,4,1,2.886999846
"488","5d30e6ef53416100199ad7bf","JN_10",189,2,18,1,1.821000099
"489","5d30e6ef53416100199ad7bf","JN_10",190,10,35,1,2.053999901
"490","5d30e6ef53416100199ad7bf","JN_10",191,6,24,1,1.468999863
"491","5d30e6ef53416100199ad7bf","JN_10",192,10,1,1,1.501999855
"492","5d30e6ef53416100199ad7bf","JN_10",193,1,17,1,1.690999985
"493","5d30e6ef53416100199ad7bf","JN_10",194,1,2,1,1.269000053
"494","5d30e6ef53416100199ad7bf","JN_10",195,4,2,1,2.608999968
"495","5d30e6ef53416100199ad7bf","JN_10",196,1,1,1,1.684999943
"496","5d30e6ef53416100199ad7bf","JN_10",197,6,7,1,3.754999876
"497","5d30e6ef53416100199ad7bf","JN_10",198,2,3,1,1.569999933
"498","5d30e6ef53416100199ad7bf","JN_10",199,1,2,1,1.274999857
"499","5d30e6ef53416100199ad7bf","JN_10",201,2,33,1,2.100999832
"500","5d30e6ef53416100199ad7bf","JN_10",202,20,23,1,3.032999754
"501","5d30e6ef53416100199ad7bf","JN_10",203,2,21,0,1.803999901
"502","5d30e6ef53416100199ad7bf","JN_10",204,4,17,0,1.585999727
"503","5d30e6ef53416100199ad7bf","JN_10",205,6,37,1,1.738999844
"504","5d30e6ef53416100199ad7bf","JN_10",206,10,19,1,1.987999916
"505","5d30e6ef53416100199ad7bf","JN_10",207,3,32,1,2.019000053
"506","5d30e6ef53416100199ad7bf","JN_10",208,4,25,1,2.875
"507","5d30e6ef53416100199ad7bf","JN_10",209,2,5,1,1.437000036
"508","5d30e6ef53416100199ad7bf","JN_10",210,3,35,1,3.769000053
"509","5d30e6ef53416100199ad7bf","JN_10",211,3,7,1,3.335999727
"510","5d30e6ef53416100199ad7bf","JN_10",212,3,27,1,1.894000053
"511","5d30e6ef53416100199ad7bf","JN_10",213,10,21,1,2.566999912
"512","5d30e6ef53416100199ad7bf","JN_10",214,20,6,1,1.872999907
"513","5d30e6ef53416100199ad7bf","JN_10",215,1,7,1,3.45299983
"514","5d30e6ef53416100199ad7bf","JN_10",216,10,4,1,2.489999771
"515","5d30e6ef53416100199ad7bf","JN_10",217,1,24,1,2.81799984
"516","5d30e6ef53416100199ad7bf","JN_10",218,20,3,1,5.69299984
"517","5d30e6ef53416100199ad7bf","JN_10",219,10,34,1,2.975999832
"518","5d30e6ef53416100199ad7bf","JN_10",220,2,11,0,1.517999887
"519","5d30e6ef53416100199ad7bf","JN_10",221,20,36,1,2.904999971
"520","5d30e6ef53416100199ad7bf","JN_10",222,10,16,1,3.001999855
"521","5d30e6ef53416100199ad7bf","JN_10",223,4,22,1,2.125999928
"522","5d30e6ef53416100199ad7bf","JN_10",224,10,36,1,2.470999718
"523","5d30e6ef53416100199ad7bf","JN_10",225,1,22,1,4.098999977
"524","5d30e6ef53416100199ad7bf","JN_10",226,10,22,1,3.854999781
"525","5d30e6ef53416100199ad7bf","JN_10",227,6,9,1,2.718999863
"526","5d30e6ef53416100199ad7bf","JN_10",228,3,19,1,1.819999933
"527","5d30e6ef53416100199ad7bf","JN_10",229,3,31,1,2.80099988
"528","5d30e6ef53416100199ad7bf","JN_10",230,2,8,1,3.243000031
"529","5d30e6ef53416100199ad7bf","JN_10",231,20,9,1,1.592000008
"530","5d30e6ef53416100199ad7bf","JN_10",232,1,38,1,1.358999968
"531","5d30e6ef53416100199ad7bf","JN_10",233,20,7,1,2.520999908
"532","5d30e6ef53416100199ad7bf","JN_10",234,6,11,1,1.802000046
"533","5d30e6ef53416100199ad7bf","JN_10",235,4,2,1,1.96999979
"534","5d30e6ef53416100199ad7bf","JN_10",236,4,3,1,5.674999952
"535","5d30e6ef53416100199ad7bf","JN_10",237,3,33,1,3.286000013
"536","5d30e6ef53416100199ad7bf","JN_10",238,3,16,0,1.937999725
"537","5d30e6ef53416100199ad7bf","JN_10",239,4,30,1,4.551999807
"538","5d30e6ef53416100199ad7bf","JN_10",240,6,6,1,3.092999935
"539","5d30e6ef53416100199ad7bf","JN_10",241,20,16,1,2.270999908
"540","5d30e6ef53416100199ad7bf","JN_10",242,2,13,1,1.851999998
"541","5d30e6ef53416100199ad7bf","JN_10",243,2,27,1,2.269999743
"542","5d30e6ef53416100199ad7bf","JN_10",244,4,4,1,2.270999908
"543","5d30e6ef53416100199ad7bf","JN_10",245,4,33,1,2.871999979
"544","5d30e6ef53416100199ad7bf","JN_10",246,4,29,1,4.402999878
"545","5d30e6ef53416100199ad7bf","JN_10",247,1,5,1,1.35199976
"546","5d30e6ef53416100199ad7bf","JN_10",248,1,26,1,2.420000076
"547","5d30e6ef53416100199ad7bf","JN_10",249,20,28,1,2.170999765
"548","5d30e6ef53416100199ad7bf","JN_10",250,20,8,1,2.187999725
"549","5d30e6ef53416100199ad7bf","JN_10",251,4,19,1,2.632999897
"550","5d30e6ef53416100199ad7bf","JN_10",252,10,15,1,3.484999895
"551","5d30e6ef53416100199ad7bf","JN_10",253,3,17,0,1.852999926
"552","5d30e6ef53416100199ad7bf","JN_10",254,6,32,0,1.805999994
"553","5d30e6ef53416100199ad7bf","JN_10",255,4,1,1,1.894000053
"554","5d30e6ef53416100199ad7bf","JN_10",256,1,9,1,3.954999924
"555","5d30e6ef53416100199ad7bf","JN_10",257,4,9,1,2.801999807
"556","5d30e6ef53416100199ad7bf","JN_10",258,20,22,0,1.039000034
"557","5d30e6ef53416100199ad7bf","JN_10",259,6,1,0,4.735999823
"558","5d30e6ef53416100199ad7bf","JN_10",260,3,9,1,4.671999931
"559","5d30e6ef53416100199ad7bf","JN_10",261,3,8,1,4.703000069
"560","5d30e6ef53416100199ad7bf","JN_10",262,3,26,1,3.5
"561","5d30e6ef53416100199ad7bf","JN_10",263,4,1,1,1.770999908
"562","5d30e6ef53416100199ad7bf","JN_10",265,2,25,0,1.538999796
"563","5d30e6ef53416100199ad7bf","JN_10",266,2,3,1,1.676999807
"564","5d30e6ef53416100199ad7bf","JN_10",267,10,14,1,1.557999849
"565","5d30e6ef53416100199ad7bf","JN_10",268,20,15,1,2.10199976
"566","5d30e6ef53416100199ad7bf","JN_10",269,4,38,1,4.953999996
"567","5d30e6ef53416100199ad7bf","JN_10",270,10,8,1,4.186999798
"568","5d30e6ef53416100199ad7bf","JN_10",271,10,18,1,2.21999979
"569","5d30e6ef53416100199ad7bf","JN_10",272,3,24,1,1.536999941
"570","5d30e6ef53416100199ad7bf","JN_10",273,2,35,1,1.218999863
"571","5d30e6ef53416100199ad7bf","JN_10",274,20,4,1,2.023999929
"572","5d30e6ef53416100199ad7bf","JN_10",275,2,24,1,1.852999926
"573","5d30e6ef53416100199ad7bf","JN_10",276,20,37,1,3.796999931
"574","5d30e6ef53416100199ad7bf","JN_10",277,4,12,1,3.207000017
"575","5d30e6ef53416100199ad7bf","JN_10",278,3,5,0,1.885999918
"576","5d30e6ef53416100199ad7bf","JN_10",279,4,26,0,1.587999821
"577","5d30e6ef53416100199ad7bf","JN_10",280,6,26,1,1.724999905
"578","5d30e6ef53416100199ad7bf","JN_10",281,1,28,0,2.574999809
"579","5d30e6ef53416100199ad7bf","JN_10",282,10,6,1,1.756000042
"580","5d30e6ef53416100199ad7bf","JN_10",283,3,18,1,4.434999704
"581","5d30e6ef53416100199ad7bf","JN_10",284,10,31,0,1.751999855
"582","5d30e6ef53416100199ad7bf","JN_10",285,4,18,1,2.585999966
"583","5d30e6ef53416100199ad7bf","JN_10",286,1,23,1,1.92599988
"584","5d30e6ef53416100199ad7bf","JN_10",287,10,3,1,1.335999727
"585","5d30e6ef53416100199ad7bf","JN_10",288,6,21,1,2.13499999
"586","5d30e6ef53416100199ad7bf","JN_10",289,1,32,1,1.968999863
"587","5d30e6ef53416100199ad7bf","JN_10",290,2,14,1,1.937999964
"588","5d30e6ef53416100199ad7bf","JN_10",291,20,12,1,1.404000044
"589","5d30e6ef53416100199ad7bf","JN_10",292,10,33,1,1.986999989
"590","5d30e6ef53416100199ad7bf","JN_10",293,2,32,1,1.769999981
"591","5d30e6ef53416100199ad7bf","JN_10",294,1,5,1,1.750999928
"592","5d30e6ef53416100199ad7bf","JN_10",295,1,11,1,1.569999933
"593","5d30e6ef53416100199ad7bf","JN_10",296,4,20,1,3.171000004
"594","5d30e6ef53416100199ad7bf","JN_10",297,10,20,1,3.21999979
"595","5d30e6ef53416100199ad7bf","JN_10",298,2,15,1,2.751999855
"596","5d30e6ef53416100199ad7bf","JN_10",299,20,1,1,2.170999765
"597","5d30e6ef53416100199ad7bf","JN_10",300,6,28,1,2.785999775
"598","5d30e6ef53416100199ad7bf","JN_10",301,2,36,0,2.501999855
"599","5d30e6ef53416100199ad7bf","JN_10",302,3,21,1,2.104999781
"600","5d30e6ef53416100199ad7bf","JN_10",303,20,1,1,4.468999863
"601","5d30e6ef53416100199ad7bf","JN_10",304,10,29,1,1.855999947
"602","5d30e6ef53416100199ad7bf","JN_10",305,20,27,1,2.934999943
"603","5d30e6ef53416100199ad7bf","JN_10",306,4,4,1,3.092999935
"604","5d30e6ef53416100199ad7bf","JN_10",307,2,2,1,2.921999931
"605","5d30e6ef53416100199ad7bf","JN_10",308,4,40,1,1.717999935
"606","5d30e6ef53416100199ad7bf","JN_10",309,4,8,1,3.436000109
"607","5d30e6ef53416100199ad7bf","JN_10",310,1,37,0,1.842000008
"608","5d30e6ef53416100199ad7bf","JN_10",311,6,29,1,3.926999807
"609","5d30e6ef53416100199ad7bf","JN_10",312,1,36,1,3.035000086
"610","5d30e6ef53416100199ad7bf","JN_10",313,4,6,0,3.502999783
"611","5d30e6ef53416100199ad7bf","JN_10",314,4,31,1,2.089999914
"612","5d30e6ef53416100199ad7bf","JN_10",315,3,15,0,2.40199995
"613","5d401374a4f12200163db67a","JN_11",1,3,27,1,2.093000174
"614","5d401374a4f12200163db67a","JN_11",2,6,5,1,1.95600009
"615","5d401374a4f12200163db67a","JN_11",3,1,25,1,1.59100008
"616","5d401374a4f12200163db67a","JN_11",4,2,8,0,1.377000093
"617","5d401374a4f12200163db67a","JN_11",5,4,29,1,1.706000328
"618","5d401374a4f12200163db67a","JN_11",6,20,4,1,2.156000137
"619","5d401374a4f12200163db67a","JN_11",7,4,20,0,1.621999979
"620","5d401374a4f12200163db67a","JN_11",8,10,26,1,1.589000225
"621","5d401374a4f12200163db67a","JN_11",9,3,16,0,2.407000065
"622","5d401374a4f12200163db67a","JN_11",10,1,3,1,1.673000097
"623","5d401374a4f12200163db67a","JN_11",11,20,8,1,1.890000105
"624","5d401374a4f12200163db67a","JN_11",12,3,25,1,1.738000154
"625","5d401374a4f12200163db67a","JN_11",13,6,36,1,1.692000151
"626","5d401374a4f12200163db67a","JN_11",14,1,35,1,1.823000193
"627","5d401374a4f12200163db67a","JN_11",15,3,2,1,1.943000078
"628","5d401374a4f12200163db67a","JN_11",16,1,38,0,1.592000246
"629","5d401374a4f12200163db67a","JN_11",17,4,30,0,1.755000114
"630","5d401374a4f12200163db67a","JN_11",18,1,5,1,1.888000011
"631","5d401374a4f12200163db67a","JN_11",19,4,18,1,1.656000137
"632","5d401374a4f12200163db67a","JN_11",20,10,28,1,1.690999985
"633","5d401374a4f12200163db67a","JN_11",21,3,20,1,1.554000139
"634","5d401374a4f12200163db67a","JN_11",22,4,37,1,1.673000097
"635","5d401374a4f12200163db67a","JN_11",23,6,27,0,1.789000273
"636","5d401374a4f12200163db67a","JN_11",24,10,14,0,2.628999949
"637","5d401374a4f12200163db67a","JN_11",25,1,22,1,1.624000072
"638","5d401374a4f12200163db67a","JN_11",26,4,40,0,1.68900013
"639","5d401374a4f12200163db67a","JN_11",27,4,19,0,1.67200017
"640","5d401374a4f12200163db67a","JN_11",28,1,28,1,1.855999947
"641","5d401374a4f12200163db67a","JN_11",29,6,8,0,1.872000217
"642","5d401374a4f12200163db67a","JN_11",30,2,3,1,1.75600028
"643","5d401374a4f12200163db67a","JN_11",31,20,38,0,2.088000059
"644","5d401374a4f12200163db67a","JN_11",32,3,5,0,2.059000254
"645","5d401374a4f12200163db67a","JN_11",33,2,17,1,1.639000177
"646","5d401374a4f12200163db67a","JN_11",34,3,38,1,2.106000185
"647","5d401374a4f12200163db67a","JN_11",35,1,31,1,2.072000265
"648","5d401374a4f12200163db67a","JN_11",36,4,9,1,1.70600009
"649","5d401374a4f12200163db67a","JN_11",37,3,2,1,1.627000093
"650","5d401374a4f12200163db67a","JN_11",38,3,9,1,1.622000217
"651","5d401374a4f12200163db67a","JN_11",39,10,35,0,1.705000162
"652","5d401374a4f12200163db67a","JN_11",40,2,2,1,1.740000248
"653","5d401374a4f12200163db67a","JN_11",41,20,20,1,1.739000082
"654","5d401374a4f12200163db67a","JN_11",42,1,13,1,1.755000114
"655","5d401374a4f12200163db67a","JN_11",43,20,33,0,1.822000265
"656","5d401374a4f12200163db67a","JN_11",44,4,4,0,1.68900013
"657","5d401374a4f12200163db67a","JN_11",45,6,10,1,1.538000107
"658","5d401374a4f12200163db67a","JN_11",46,4,12,1,2.190999985
"659","5d401374a4f12200163db67a","JN_11",47,10,11,0,1.63800025
"660","5d401374a4f12200163db67a","JN_11",48,1,15,1,1.539000273
"661","5d401374a4f12200163db67a","JN_11",49,4,5,0,1.622000217
"662","5d401374a4f12200163db67a","JN_11",50,10,15,1,1.739000082
"663","5d401374a4f12200163db67a","JN_11",51,3,21,1,1.756000042
"664","5d401374a4f12200163db67a","JN_11",52,3,13,1,1.406000137
"665","5d401374a4f12200163db67a","JN_11",53,2,36,1,1.404999971
"666","5d401374a4f12200163db67a","JN_11",54,20,1,0,1.67200017
"667","5d401374a4f12200163db67a","JN_11",55,2,14,1,1.842000008
"668","5d401374a4f12200163db67a","JN_11",56,1,2,1,1.588999987
"669","5d401374a4f12200163db67a","JN_11",57,10,39,0,1.641000271
"670","5d401374a4f12200163db67a","JN_11",58,6,29,0,2.373000145
"671","5d401374a4f12200163db67a","JN_11",59,6,39,0,1.876000166
"672","5d401374a4f12200163db67a","JN_11",60,6,21,0,1.656000137
"673","5d401374a4f12200163db67a","JN_11",61,20,25,0,2.003999949
"674","5d401374a4f12200163db67a","JN_11",62,10,24,1,1.573000193
"675","5d401374a4f12200163db67a","JN_11",63,6,2,1,1.755000114
"676","5d401374a4f12200163db67a","JN_11",64,3,28,0,1.659000158
"677","5d401374a4f12200163db67a","JN_11",65,10,23,1,1.959000111
"678","5d401374a4f12200163db67a","JN_11",66,3,1,1,1.558000326
"679","5d401374a4f12200163db67a","JN_11",67,20,21,1,1.688000202
"680","5d401374a4f12200163db67a","JN_11",68,10,40,1,1.67200017
"681","5d401374a4f12200163db67a","JN_11",69,20,36,1,1.838999987
"682","5d401374a4f12200163db67a","JN_11",70,1,10,1,2.27300024
"683","5d401374a4f12200163db67a","JN_11",71,2,5,0,1.673000097
"684","5d401374a4f12200163db67a","JN_11",72,1,12,1,1.609000206
"685","5d401374a4f12200163db67a","JN_11",73,6,14,0,1.907000303
"686","5d401374a4f12200163db67a","JN_11",74,6,26,1,2.658000231
"687","5d401374a4f12200163db67a","JN_11",75,10,18,1,2.039000273
"688","5d401374a4f12200163db67a","JN_11",76,3,40,1,1.544000149
"689","5d401374a4f12200163db67a","JN_11",77,1,1,0,1.70600009
"690","5d401374a4f12200163db67a","JN_11",78,1,2,1,1.641000032
"691","5d401374a4f12200163db67a","JN_11",79,4,1,1,1.560000181
"692","5d401374a4f12200163db67a","JN_11",80,10,9,1,1.653000116
"693","5d401374a4f12200163db67a","JN_11",81,6,4,1,1.588000059
"694","5d401374a4f12200163db67a","JN_11",82,10,1,0,1.859000206
"695","5d401374a4f12200163db67a","JN_11",83,6,37,0,1.72300005
"696","5d401374a4f12200163db67a","JN_11",84,2,12,0,1.588000298
"697","5d401374a4f12200163db67a","JN_11",85,20,23,1,1.594000101
"698","5d401374a4f12200163db67a","JN_11",86,2,10,1,1.659000158
"699","5d401374a4f12200163db67a","JN_11",87,2,7,1,1.455000162
"700","5d401374a4f12200163db67a","JN_11",88,6,17,0,1.492000103
"701","5d401374a4f12200163db67a","JN_11",89,6,32,1,1.673000097
"702","5d401374a4f12200163db67a","JN_11",90,6,30,0,1.792000294
"703","5d401374a4f12200163db67a","JN_11",91,4,28,0,1.791000128
"704","5d401374a4f12200163db67a","JN_11",92,1,32,1,1.687000275
"705","5d401374a4f12200163db67a","JN_11",93,4,26,1,1.97300005
"706","5d401374a4f12200163db67a","JN_11",94,20,4,1,2.055000305
"707","5d401374a4f12200163db67a","JN_11",96,2,5,1,1.657000065
"708","5d401374a4f12200163db67a","JN_11",97,4,38,0,1.72200036
"709","5d401374a4f12200163db67a","JN_11",98,2,13,1,1.621999979
"710","5d401374a4f12200163db67a","JN_11",99,10,31,1,1.84400034
"711","5d401374a4f12200163db67a","JN_11",100,3,15,0,1.525000334
"712","5d401374a4f12200163db67a","JN_11",101,4,17,0,1.92200017
"713","5d401374a4f12200163db67a","JN_11",102,3,14,0,1.642000198
"714","5d401374a4f12200163db67a","JN_11",103,1,19,1,1.605000019
"715","5d401374a4f12200163db67a","JN_11",104,6,18,0,1.573000193
"716","5d401374a4f12200163db67a","JN_11",105,2,25,1,1.654000044
"717","5d401374a4f12200163db67a","JN_11",106,6,31,1,1.605000257
"718","5d401374a4f12200163db67a","JN_11",107,2,38,1,1.556000233
"719","5d401374a4f12200163db67a","JN_11",108,3,12,0,1.460000038
"720","5d401374a4f12200163db67a","JN_11",109,3,33,1,2.17200017
"721","5d401374a4f12200163db67a","JN_11",110,3,3,1,2.175000191
"722","5d401374a4f12200163db67a","JN_11",111,20,7,1,1.406000376
"723","5d401374a4f12200163db67a","JN_11",112,3,8,0,1.688000202
"724","5d401374a4f12200163db67a","JN_11",113,4,15,0,1.660000324
"725","5d401374a4f12200163db67a","JN_11",114,20,18,1,1.536999941
"726","5d401374a4f12200163db67a","JN_11",115,2,32,1,1.705000162
"727","5d401374a4f12200163db67a","JN_11",116,2,33,1,1.620000362
"728","5d401374a4f12200163db67a","JN_11",117,6,28,1,1.74000001
"729","5d401374a4f12200163db67a","JN_11",118,6,3,1,2.18900013
"730","5d401374a4f12200163db67a","JN_11",119,1,33,1,1.940000057
"731","5d401374a4f12200163db67a","JN_11",120,20,37,1,1.989000082
"732","5d401374a4f12200163db67a","JN_11",121,4,31,0,2.041000128
"733","5d401374a4f12200163db67a","JN_11",122,2,37,0,1.495000124
"734","5d401374a4f12200163db67a","JN_11",123,3,30,0,1.774000168
"735","5d401374a4f12200163db67a","JN_11",124,1,14,0,1.904000044
"736","5d401374a4f12200163db67a","JN_11",125,4,3,1,2.125000238
"737","5d401374a4f12200163db67a","JN_11",126,2,18,1,1.653000116
"738","5d401374a4f12200163db67a","JN_11",127,20,19,1,1.589000225
"739","5d401374a4f12200163db67a","JN_11",128,1,16,1,1.661000252
"740","5d401374a4f12200163db67a","JN_11",129,20,6,0,1.709000111
"741","5d401374a4f12200163db67a","JN_11",130,2,40,1,2.215000153
"742","5d401374a4f12200163db67a","JN_11",131,3,3,1,1.656000137
"743","5d401374a4f12200163db67a","JN_11",132,6,33,0,1.761000156
"744","5d401374a4f12200163db67a","JN_11",133,10,32,1,2.378000259
"745","5d401374a4f12200163db67a","JN_11",134,4,6,1,1.68900013
"746","5d401374a4f12200163db67a","JN_11",135,2,19,1,1.769000292
"747","5d401374a4f12200163db67a","JN_11",136,20,30,0,1.720000029
"748","5d401374a4f12200163db67a","JN_11",137,2,15,1,2.106000185
"749","5d401374a4f12200163db67a","JN_11",138,4,35,1,2.194000244
"750","5d401374a4f12200163db67a","JN_11",139,1,17,1,1.470000029
"751","5d401374a4f12200163db67a","JN_11",140,6,19,0,1.589000225
"752","5d401374a4f12200163db67a","JN_11",141,10,22,0,1.622000217
"753","5d401374a4f12200163db67a","JN_11",142,20,32,1,2.241000175
"754","5d401374a4f12200163db67a","JN_11",143,4,1,1,1.624000311
"755","5d401374a4f12200163db67a","JN_11",144,10,3,1,1.937000275
"756","5d401374a4f12200163db67a","JN_11",145,3,6,1,1.62100029
"757","5d401374a4f12200163db67a","JN_11",146,3,24,1,1.664000034
"758","5d401374a4f12200163db67a","JN_11",147,10,4,0,1.585999966
"759","5d401374a4f12200163db67a","JN_11",148,3,23,1,1.67200017
"760","5d401374a4f12200163db67a","JN_11",149,2,29,1,1.688000202
"761","5d401374a4f12200163db67a","JN_11",150,20,27,1,2.2900002
"762","5d401374a4f12200163db67a","JN_11",151,2,4,1,2.13800025
"763","5d401374a4f12200163db67a","JN_11",152,6,24,0,1.605000257
"764","5d401374a4f12200163db67a","JN_11",153,20,2,1,1.690000057
"765","5d401374a4f12200163db67a","JN_11",154,6,34,0,1.590000153
"766","5d401374a4f12200163db67a","JN_11",155,6,15,0,2.173000097
"767","5d401374a4f12200163db67a","JN_11",156,10,33,0,1.605999947
"768","5d401374a4f12200163db67a","JN_11",157,1,9,1,1.588000298
"769","5d401374a4f12200163db67a","JN_11",158,4,5,1,1.609000206
"770","5d401374a4f12200163db67a","JN_11",159,20,16,1,1.572000265
"771","5d401374a4f12200163db67a","JN_11",160,10,25,0,1.532999992
"772","5d401374a4f12200163db67a","JN_11",161,3,19,1,1.537000179
"773","5d401374a4f12200163db67a","JN_11",162,6,3,0,1.623000145
"774","5d401374a4f12200163db67a","JN_11",163,10,12,0,1.588000059
"775","5d401374a4f12200163db67a","JN_11",164,1,8,1,1.574000359
"776","5d401374a4f12200163db67a","JN_11",165,20,29,1,1.426000357
"777","5d401374a4f12200163db67a","JN_11",166,20,3,1,1.657000065
"778","5d401374a4f12200163db67a","JN_11",167,2,23,1,1.611000299
"779","5d401374a4f12200163db67a","JN_11",168,4,14,1,1.88499999
"780","5d401374a4f12200163db67a","JN_11",169,6,13,0,1.940999985
"781","5d401374a4f12200163db67a","JN_11",170,6,2,1,2.59400034
"782","5d401374a4f12200163db67a","JN_11",171,1,18,1,2.441000223
"783","5d401374a4f12200163db67a","JN_11",172,10,4,0,1.673000097
"784","5d401374a4f12200163db67a","JN_11",173,2,9,1,1.643000126
"785","5d401374a4f12200163db67a","JN_11",174,20,10,1,1.738000154
"786","5d401374a4f12200163db67a","JN_11",175,2,22,1,1.687000275
"787","5d401374a4f12200163db67a","JN_11",176,4,2,0,2.424999952
"788","5d401374a4f12200163db67a","JN_11",177,4,7,0,1.705000162
"789","5d401374a4f12200163db67a","JN_11",178,4,36,0,1.969000101
"790","5d401374a4f12200163db67a","JN_11",179,10,27,1,2.005000114
"791","5d401374a4f12200163db67a","JN_11",180,3,17,0,1.539000034
"792","5d401374a4f12200163db67a","JN_11",181,1,37,1,1.640000105
"793","5d401374a4f12200163db67a","JN_11",182,4,22,0,1.607000113
"794","5d401374a4f12200163db67a","JN_11",183,2,1,1,1.826000214
"795","5d401374a4f12200163db67a","JN_11",185,10,30,0,1.973000288
"796","5d401374a4f12200163db67a","JN_11",186,2,31,0,1.572000265
"797","5d401374a4f12200163db67a","JN_11",187,10,3,0,1.52300024
"798","5d401374a4f12200163db67a","JN_11",188,3,18,1,1.68900013
"799","5d401374a4f12200163db67a","JN_11",189,4,13,0,1.588000059
"800","5d401374a4f12200163db67a","JN_11",190,2,28,1,1.717000246
"801","5d401374a4f12200163db67a","JN_11",191,4,34,1,1.909000158
"802","5d401374a4f12200163db67a","JN_11",192,10,21,0,1.639000177
"803","5d401374a4f12200163db67a","JN_11",193,1,29,1,1.355000257
"804","5d401374a4f12200163db67a","JN_11",194,10,19,0,2.107000351
"805","5d401374a4f12200163db67a","JN_11",195,6,25,0,1.486999989
"806","5d401374a4f12200163db67a","JN_11",196,2,6,1,1.542000294
"807","5d401374a4f12200163db67a","JN_11",197,2,24,1,1.858000278
"808","5d401374a4f12200163db67a","JN_11",198,10,2,1,1.623000145
"809","5d401374a4f12200163db67a","JN_11",199,4,24,0,2.005000114
"810","5d401374a4f12200163db67a","JN_11",200,1,4,1,1.880000114
"811","5d401374a4f12200163db67a","JN_11",201,1,1,0,1.696000338
"812","5d401374a4f12200163db67a","JN_11",202,6,40,1,1.753000259
"813","5d401374a4f12200163db67a","JN_11",203,1,3,0,1.67200017
"814","5d401374a4f12200163db67a","JN_11",204,6,20,0,1.623000145
"815","5d401374a4f12200163db67a","JN_11",205,10,5,1,1.957000256
"816","5d401374a4f12200163db67a","JN_11",206,10,13,0,1.728000164
"817","5d401374a4f12200163db67a","JN_11",207,3,4,1,1.793000221
"818","5d401374a4f12200163db67a","JN_11",208,1,23,0,1.75600028
"819","5d401374a4f12200163db67a","JN_11",209,3,5,1,1.84400034
"820","5d401374a4f12200163db67a","JN_11",210,6,22,1,1.705000162
"821","5d401374a4f12200163db67a","JN_11",211,1,21,1,2.455000162
"822","5d401374a4f12200163db67a","JN_11",212,1,20,1,2.222000122
"823","5d401374a4f12200163db67a","JN_11",213,20,28,1,2.406000137
"824","5d401374a4f12200163db67a","JN_11",214,1,4,0,1.723000288
"825","5d401374a4f12200163db67a","JN_11",215,3,29,1,2.177000284
"826","5d401374a4f12200163db67a","JN_11",216,3,11,1,1.641000032
"827","5d401374a4f12200163db67a","JN_11",217,3,32,1,1.641000032
"828","5d401374a4f12200163db67a","JN_11",218,4,39,1,1.588000298
"829","5d401374a4f12200163db67a","JN_11",219,3,34,0,1.555999994
"830","5d401374a4f12200163db67a","JN_11",220,2,3,1,1.68900013
"831","5d401374a4f12200163db67a","JN_11",221,20,34,0,1.489000082
"832","5d401374a4f12200163db67a","JN_11",222,1,7,1,1.488000154
"833","5d401374a4f12200163db67a","JN_11",224,6,1,0,1.572999954
"834","5d401374a4f12200163db67a","JN_11",225,6,35,1,1.673000336
"835","5d401374a4f12200163db67a","JN_11",226,20,15,1,1.674000263
"836","5d401374a4f12200163db67a","JN_11",227,10,1,0,1.538000345
"837","5d401374a4f12200163db67a","JN_11",228,3,10,1,2.406000137
"838","5d401374a4f12200163db67a","JN_11",229,20,11,1,2.140000105
"839","5d401374a4f12200163db67a","JN_11",230,2,27,1,2.340000153
"840","5d401374a4f12200163db67a","JN_11",231,10,7,0,2.560000181
"841","5d401374a4f12200163db67a","JN_11",232,1,27,1,1.754000187
"842","5d401374a4f12200163db67a","JN_11",233,3,31,0,1.54700017
"843","5d401374a4f12200163db67a","JN_11",234,6,6,0,1.73900032
"844","5d401374a4f12200163db67a","JN_11",235,20,39,1,1.611000299
"845","5d401374a4f12200163db67a","JN_11",236,1,39,1,1.471000195
"846","5d401374a4f12200163db67a","JN_11",237,1,34,1,2.029000044
"847","5d401374a4f12200163db67a","JN_11",239,6,1,1,2.318000078
"848","5d401374a4f12200163db67a","JN_11",240,6,11,0,2.522000074
"849","5d401374a4f12200163db67a","JN_11",241,1,36,1,1.723000288
"850","5d401374a4f12200163db67a","JN_11",242,10,38,1,1.870000124
"851","5d401374a4f12200163db67a","JN_11",243,20,22,1,1.337000132
"852","5d401374a4f12200163db67a","JN_11",244,4,23,1,1.807000399
"853","5d401374a4f12200163db67a","JN_11",245,1,11,0,1.693000078
"854","5d401374a4f12200163db67a","JN_11",246,20,1,1,2.00600028
"855","5d401374a4f12200163db67a","JN_11",247,2,20,0,1.728000164
"856","5d401374a4f12200163db67a","JN_11",248,2,30,1,1.722000122
"857","5d401374a4f12200163db67a","JN_11",250,3,35,1,1.955000162
"858","5d401374a4f12200163db67a","JN_11",251,3,39,0,1.687000275
"859","5d401374a4f12200163db67a","JN_11",252,20,14,1,1.603000164
"860","5d401374a4f12200163db67a","JN_11",253,10,2,1,1.656000137
"861","5d401374a4f12200163db67a","JN_11",254,10,29,1,1.517000198
"862","5d401374a4f12200163db67a","JN_11",255,4,32,0,1.786000252
"863","5d401374a4f12200163db67a","JN_11",256,20,2,1,1.688000202
"864","5d401374a4f12200163db67a","JN_11",257,6,7,1,1.890000105
"865","5d401374a4f12200163db67a","JN_11",258,6,16,1,1.940000057
"866","5d401374a4f12200163db67a","JN_11",259,10,20,1,1.991000175
"867","5d401374a4f12200163db67a","JN_11",260,3,36,0,2.020000219
"868","5d401374a4f12200163db67a","JN_11",261,6,23,1,2.22300005
"869","5d401374a4f12200163db67a","JN_11",262,20,35,1,1.7900002
"870","5d401374a4f12200163db67a","JN_11",263,1,6,1,1.455000162
"871","5d401374a4f12200163db67a","JN_11",264,2,39,1,1.822000027
"872","5d401374a4f12200163db67a","JN_11",265,3,7,1,1.472000122
"873","5d401374a4f12200163db67a","JN_11",266,20,31,1,1.559000254
"874","5d401374a4f12200163db67a","JN_11",267,4,21,1,1.73900032
"875","5d401374a4f12200163db67a","JN_11",268,4,33,0,1.460000277
"876","5d401374a4f12200163db67a","JN_11",269,10,36,0,2.2900002
"877","5d401374a4f12200163db67a","JN_11",270,2,26,1,1.958000183
"878","5d401374a4f12200163db67a","JN_11",271,10,37,0,1.556000233
"879","5d401374a4f12200163db67a","JN_11",272,4,27,0,2.191000223
"880","5d401374a4f12200163db67a","JN_11",273,4,4,0,2.411000252
"881","5d401374a4f12200163db67a","JN_11",274,6,9,0,1.593000174
"882","5d401374a4f12200163db67a","JN_11",275,20,26,1,2.344000101
"883","5d401374a4f12200163db67a","JN_11",276,1,24,0,2.128000021
"884","5d401374a4f12200163db67a","JN_11",278,1,26,1,2.123000383
"885","5d401374a4f12200163db67a","JN_11",279,20,40,1,1.82400012
"886","5d401374a4f12200163db67a","JN_11",280,4,25,1,1.689000368
"887","5d401374a4f12200163db67a","JN_11",282,2,34,1,1.757000208
"888","5d401374a4f12200163db67a","JN_11",283,2,11,1,2.389000177
"889","5d401374a4f12200163db67a","JN_11",284,2,16,1,1.720000029
"890","5d401374a4f12200163db67a","JN_11",286,4,3,0,2.101000071
"891","5d401374a4f12200163db67a","JN_11",287,4,2,1,2.170000076
"892","5d401374a4f12200163db67a","JN_11",288,6,5,0,2.139000177
"893","5d401374a4f12200163db67a","JN_11",289,20,9,1,1.654000282
"894","5d401374a4f12200163db67a","JN_11",290,2,21,0,2.072000265
"895","5d401374a4f12200163db67a","JN_11",291,3,22,0,1.690000296
"896","5d401374a4f12200163db67a","JN_11",292,3,4,0,2.171000004
"897","5d401374a4f12200163db67a","JN_11",293,3,1,1,1.694999933
"898","5d401374a4f12200163db67a","JN_11",294,4,11,0,1.545000076
"899","5d401374a4f12200163db67a","JN_11",295,20,12,1,1.639000177
"900","5d401374a4f12200163db67a","JN_11",296,6,38,1,1.911000013
"901","5d401374a4f12200163db67a","JN_11",297,20,13,1,1.958000183
"902","5d401374a4f12200163db67a","JN_11",298,3,26,1,1.453000307
"903","5d401374a4f12200163db67a","JN_11",299,20,17,1,2.05700016
"904","5d401374a4f12200163db67a","JN_11",300,20,5,1,1.620000124
"905","5d401374a4f12200163db67a","JN_11",301,10,8,0,2.22300005
"906","5d401374a4f12200163db67a","JN_11",302,20,24,1,2.276000261
"907","5d401374a4f12200163db67a","JN_11",303,10,10,0,2.121999979
"908","5d401374a4f12200163db67a","JN_11",304,20,3,1,2.239000082
"909","5d401374a4f12200163db67a","JN_11",305,4,8,1,1.610000134
"910","5d401374a4f12200163db67a","JN_11",306,10,6,1,2.024000168
"911","5d401374a4f12200163db67a","JN_11",307,6,12,1,2.078000069
"912","5d401374a4f12200163db67a","JN_11",308,3,37,1,2.127000093
"913","5d401374a4f12200163db67a","JN_11",309,4,10,1,1.656000137
"914","5d401374a4f12200163db67a","JN_11",310,4,16,1,2.160000324
"915","5d401374a4f12200163db67a","JN_11",311,2,1,1,1.944000006
"916","5d401374a4f12200163db67a","JN_11",312,20,5,1,1.662000179
"917","5d401374a4f12200163db67a","JN_11",313,1,40,1,1.722000122
"918","5d401374a4f12200163db67a","JN_11",314,2,4,1,1.643000126
"919","5d401374a4f12200163db67a","JN_11",315,1,30,1,1.828000307
"920","5d4c507f2a080f0001912ed3","JN_12",1,4,27,0,1.303999901
"921","5d4c507f2a080f0001912ed3","JN_12",2,10,13,1,1.638000011
"922","5d4c507f2a080f0001912ed3","JN_12",3,2,25,1,1.797999859
"923","5d4c507f2a080f0001912ed3","JN_12",4,2,32,0,1.953000069
"924","5d4c507f2a080f0001912ed3","JN_12",5,2,38,1,1.444000006
"925","5d4c507f2a080f0001912ed3","JN_12",6,20,38,0,1.496000051
"926","5d4c507f2a080f0001912ed3","JN_12",7,2,36,1,1.383999825
"927","5d4c507f2a080f0001912ed3","JN_12",8,1,36,0,1.467999935
"928","5d4c507f2a080f0001912ed3","JN_12",9,3,20,1,1.671999931
"929","5d4c507f2a080f0001912ed3","JN_12",10,1,24,0,1.444000006
"930","5d4c507f2a080f0001912ed3","JN_12",11,10,38,0,1.000999928
"931","5d4c507f2a080f0001912ed3","JN_12",12,6,22,1,1.436999798
"932","5d4c507f2a080f0001912ed3","JN_12",13,3,2,1,1.556999922
"933","5d4c507f2a080f0001912ed3","JN_12",14,6,14,0,1.718999863
"934","5d4c507f2a080f0001912ed3","JN_12",15,1,32,1,1.578999758
"935","5d4c507f2a080f0001912ed3","JN_12",16,2,27,1,1.485999823
"936","5d4c507f2a080f0001912ed3","JN_12",17,10,4,0,1.342000008
"937","5d4c507f2a080f0001912ed3","JN_12",18,2,39,1,1.412999868
"938","5d4c507f2a080f0001912ed3","JN_12",19,20,11,1,1.552999735
"939","5d4c507f2a080f0001912ed3","JN_12",20,4,6,0,1.38499999
"940","5d4c507f2a080f0001912ed3","JN_12",21,10,4,1,1.769999981
"941","5d4c507f2a080f0001912ed3","JN_12",22,6,9,1,1.563999891
"942","5d4c507f2a080f0001912ed3","JN_12",23,6,1,0,1.387000084
"943","5d4c507f2a080f0001912ed3","JN_12",24,6,4,1,1.697999954
"944","5d4c507f2a080f0001912ed3","JN_12",25,1,15,1,1.539999962
"945","5d4c507f2a080f0001912ed3","JN_12",26,3,19,1,1.511999846
"946","5d4c507f2a080f0001912ed3","JN_12",27,20,32,0,1.419999838
"947","5d4c507f2a080f0001912ed3","JN_12",28,4,3,0,1.256999731
"948","5d4c507f2a080f0001912ed3","JN_12",29,1,18,1,1.371999979
"949","5d4c507f2a080f0001912ed3","JN_12",30,4,1,1,1.52699995
"950","5d4c507f2a080f0001912ed3","JN_12",31,4,17,1,1.667999744
"951","5d4c507f2a080f0001912ed3","JN_12",32,10,11,1,1.825000048
"952","5d4c507f2a080f0001912ed3","JN_12",33,6,16,1,1.313999891
"953","5d4c507f2a080f0001912ed3","JN_12",34,6,8,0,1.25
"954","5d4c507f2a080f0001912ed3","JN_12",35,4,32,1,2.251999855
"955","5d4c507f2a080f0001912ed3","JN_12",36,20,39,1,1.725999832
"956","5d4c507f2a080f0001912ed3","JN_12",37,2,5,0,1.401000023
"957","5d4c507f2a080f0001912ed3","JN_12",38,6,3,0,1.301999807
"958","5d4c507f2a080f0001912ed3","JN_12",39,4,11,1,1.742999792
"959","5d4c507f2a080f0001912ed3","JN_12",40,3,3,0,1.342999935
"960","5d4c507f2a080f0001912ed3","JN_12",41,10,25,0,1.053999901
"961","5d4c507f2a080f0001912ed3","JN_12",42,6,32,0,1.684999943
"962","5d4c507f2a080f0001912ed3","JN_12",43,4,14,1,1.224999905
"963","5d4c507f2a080f0001912ed3","JN_12",44,1,20,1,1.480999947
"964","5d4c507f2a080f0001912ed3","JN_12",45,4,20,0,1.539000034
"965","5d4c507f2a080f0001912ed3","JN_12",46,10,28,1,1.431999922
"966","5d4c507f2a080f0001912ed3","JN_12",47,4,33,0,1.641000032
"967","5d4c507f2a080f0001912ed3","JN_12",48,4,8,0,0.999000072
"968","5d4c507f2a080f0001912ed3","JN_12",49,4,7,1,1.250999928
"969","5d4c507f2a080f0001912ed3","JN_12",50,2,33,1,1.819000006
"970","5d4c507f2a080f0001912ed3","JN_12",51,20,16,1,1.424999952
"971","5d4c507f2a080f0001912ed3","JN_12",52,1,2,1,1.637000084
"972","5d4c507f2a080f0001912ed3","JN_12",53,6,6,1,1.792999983
"973","5d4c507f2a080f0001912ed3","JN_12",54,20,3,1,1.537999868
"974","5d4c507f2a080f0001912ed3","JN_12",55,10,19,0,1.785999775
"975","5d4c507f2a080f0001912ed3","JN_12",56,10,27,0,1.309000015
"976","5d4c507f2a080f0001912ed3","JN_12",57,3,33,0,1.591999769
"977","5d4c507f2a080f0001912ed3","JN_12",58,6,31,1,1.620999813
"978","5d4c507f2a080f0001912ed3","JN_12",59,10,32,1,2.182999849
"979","5d4c507f2a080f0001912ed3","JN_12",60,2,34,1,1.651000023
"980","5d4c507f2a080f0001912ed3","JN_12",61,3,4,1,1.816999912
"981","5d4c507f2a080f0001912ed3","JN_12",62,10,26,0,1.592000008
"982","5d4c507f2a080f0001912ed3","JN_12",63,10,8,1,1.953000069
"983","5d4c507f2a080f0001912ed3","JN_12",64,1,37,0,1.58100009
"984","5d4c507f2a080f0001912ed3","JN_12",65,20,13,1,1.835999966
"985","5d4c507f2a080f0001912ed3","JN_12",66,6,20,0,1.551000118
"986","5d4c507f2a080f0001912ed3","JN_12",67,10,14,0,1.503999949
"987","5d4c507f2a080f0001912ed3","JN_12",68,2,4,1,1.625
"988","5d4c507f2a080f0001912ed3","JN_12",69,4,15,1,1.700000048
"989","5d4c507f2a080f0001912ed3","JN_12",70,20,8,1,1.707999945
"990","5d4c507f2a080f0001912ed3","JN_12",71,3,26,1,1.402999878
"991","5d4c507f2a080f0001912ed3","JN_12",72,3,35,0,2.026000023
"992","5d4c507f2a080f0001912ed3","JN_12",73,1,1,1,1.304999828
"993","5d4c507f2a080f0001912ed3","JN_12",74,4,2,1,1.345000029
"994","5d4c507f2a080f0001912ed3","JN_12",75,2,28,1,1.568999767
"995","5d4c507f2a080f0001912ed3","JN_12",76,4,18,1,1.559000015
"996","5d4c507f2a080f0001912ed3","JN_12",77,2,8,0,1.520999908
"997","5d4c507f2a080f0001912ed3","JN_12",78,1,3,1,1.819999933
"998","5d4c507f2a080f0001912ed3","JN_12",79,4,4,0,1.587999821
"999","5d4c507f2a080f0001912ed3","JN_12",80,3,30,1,1.8349998
"1000","5d4c507f2a080f0001912ed3","JN_12",81,3,12,1,1.859999895
"1001","5d4c507f2a080f0001912ed3","JN_12",82,1,7,1,1.555000067
"1002","5d4c507f2a080f0001912ed3","JN_12",83,1,13,1,1.56799984
"1003","5d4c507f2a080f0001912ed3","JN_12",84,20,2,0,1.177000046
"1004","5d4c507f2a080f0001912ed3","JN_12",85,1,25,1,1.540999889
"1005","5d4c507f2a080f0001912ed3","JN_12",86,3,27,0,1.167000055
"1006","5d4c507f2a080f0001912ed3","JN_12",87,10,9,0,1.666000128
"1007","5d4c507f2a080f0001912ed3","JN_12",88,4,5,1,1.325999975
"1008","5d4c507f2a080f0001912ed3","JN_12",89,10,1,0,1.525999784
"1009","5d4c507f2a080f0001912ed3","JN_12",90,6,13,0,1.616999865
"1010","5d4c507f2a080f0001912ed3","JN_12",91,2,3,1,1.501999855
"1011","5d4c507f2a080f0001912ed3","JN_12",92,1,34,1,1.479000092
"1012","5d4c507f2a080f0001912ed3","JN_12",93,2,31,0,1.66899991
"1013","5d4c507f2a080f0001912ed3","JN_12",94,20,3,0,1.491999865
"1014","5d4c507f2a080f0001912ed3","JN_12",95,4,5,1,1.485000134
"1015","5d4c507f2a080f0001912ed3","JN_12",96,20,24,1,1.467999935
"1016","5d4c507f2a080f0001912ed3","JN_12",97,3,31,1,1.687999964
"1017","5d4c507f2a080f0001912ed3","JN_12",98,2,37,0,1.370000124
"1018","5d4c507f2a080f0001912ed3","JN_12",99,4,23,1,1.487999916
"1019","5d4c507f2a080f0001912ed3","JN_12",100,20,20,1,1.862999916
"1020","5d4c507f2a080f0001912ed3","JN_12",101,20,37,1,1.569000006
"1021","5d4c507f2a080f0001912ed3","JN_12",102,6,2,1,1.628000021
"1022","5d4c507f2a080f0001912ed3","JN_12",103,1,21,0,1.851999998
"1023","5d4c507f2a080f0001912ed3","JN_12",104,20,29,1,1.734999895
"1024","5d4c507f2a080f0001912ed3","JN_12",105,20,25,0,2.206999779
"1025","5d4c507f2a080f0001912ed3","JN_12",106,4,26,1,1.676999807
"1026","5d4c507f2a080f0001912ed3","JN_12",107,1,16,1,1.518999815
"1027","5d4c507f2a080f0001912ed3","JN_12",108,4,40,0,1.420000076
"1028","5d4c507f2a080f0001912ed3","JN_12",109,20,1,0,1.674999952
"1029","5d4c507f2a080f0001912ed3","JN_12",110,3,32,1,1.423000097
"1030","5d4c507f2a080f0001912ed3","JN_12",111,4,25,1,1.501999855
"1031","5d4c507f2a080f0001912ed3","JN_12",112,2,1,1,1.829999924
"1032","5d4c507f2a080f0001912ed3","JN_12",113,1,26,1,1.608999968
"1033","5d4c507f2a080f0001912ed3","JN_12",114,10,3,0,1.39199996
"1034","5d4c507f2a080f0001912ed3","JN_12",115,3,18,1,1.592999935
"1035","5d4c507f2a080f0001912ed3","JN_12",116,4,34,1,1.521999836
"1036","5d4c507f2a080f0001912ed3","JN_12",117,6,23,0,1.536999941
"1037","5d4c507f2a080f0001912ed3","JN_12",118,1,5,1,1.753000021
"1038","5d4c507f2a080f0001912ed3","JN_12",119,1,19,0,1.299999952
"1039","5d4c507f2a080f0001912ed3","JN_12",120,20,17,1,1.686999798
"1040","5d4c507f2a080f0001912ed3","JN_12",121,1,28,1,1.845999956
"1041","5d4c507f2a080f0001912ed3","JN_12",122,4,19,0,1.589999914
"1042","5d4c507f2a080f0001912ed3","JN_12",123,2,18,1,1.375999928
"1043","5d4c507f2a080f0001912ed3","JN_12",124,2,17,1,1.805999994
"1044","5d4c507f2a080f0001912ed3","JN_12",125,10,36,1,1.618000031
"1045","5d4c507f2a080f0001912ed3","JN_12",126,6,28,1,1.578999996
"1046","5d4c507f2a080f0001912ed3","JN_12",127,20,22,0,1.809000015
"1047","5d4c507f2a080f0001912ed3","JN_12",128,4,4,0,1.708999872
"1048","5d4c507f2a080f0001912ed3","JN_12",129,4,12,1,1.641000032
"1049","5d4c507f2a080f0001912ed3","JN_12",130,2,14,0,1.748999834
"1050","5d4c507f2a080f0001912ed3","JN_12",131,3,25,1,1.368000031
"1051","5d4c507f2a080f0001912ed3","JN_12",132,2,6,1,1.230999947
"1052","5d4c507f2a080f0001912ed3","JN_12",133,3,17,0,1.45299983
"1053","5d4c507f2a080f0001912ed3","JN_12",134,10,33,1,1.25999999
"1054","5d4c507f2a080f0001912ed3","JN_12",135,20,36,0,1.434000015
"1055","5d4c507f2a080f0001912ed3","JN_12",136,20,10,1,1.413000107
"1056","5d4c507f2a080f0001912ed3","JN_12",138,2,24,1,1.420000076
"1057","5d4c507f2a080f0001912ed3","JN_12",139,20,18,1,1.523999929
"1058","5d4c507f2a080f0001912ed3","JN_12",140,20,31,1,1.586999893
"1059","5d4c507f2a080f0001912ed3","JN_12",141,20,1,0,1.470999956
"1060","5d4c507f2a080f0001912ed3","JN_12",142,20,12,1,1.43599987
"1061","5d4c507f2a080f0001912ed3","JN_12",143,1,17,0,1.588000059
"1062","5d4c507f2a080f0001912ed3","JN_12",144,3,4,1,1.50999999
"1063","5d4c507f2a080f0001912ed3","JN_12",145,3,23,1,2.025999784
"1064","5d4c507f2a080f0001912ed3","JN_12",146,1,35,1,1.694999933
"1065","5d4c507f2a080f0001912ed3","JN_12",147,1,29,0,1.845000029
"1066","5d4c507f2a080f0001912ed3","JN_12",148,20,2,1,1.369999886
"1067","5d4c507f2a080f0001912ed3","JN_12",149,10,40,0,2.223999977
"1068","5d4c507f2a080f0001912ed3","JN_12",150,4,21,1,1.669999838
"1069","5d4c507f2a080f0001912ed3","JN_12",151,6,10,1,1.470000029
"1070","5d4c507f2a080f0001912ed3","JN_12",152,1,3,1,1.555999994
"1071","5d4c507f2a080f0001912ed3","JN_12",153,6,15,0,1.417999983
"1072","5d4c507f2a080f0001912ed3","JN_12",154,3,8,0,1.3349998
"1073","5d4c507f2a080f0001912ed3","JN_12",155,3,16,1,1.467999935
"1074","5d4c507f2a080f0001912ed3","JN_12",156,2,9,0,1.292999983
"1075","5d4c507f2a080f0001912ed3","JN_12",157,4,29,1,1.481999874
"1076","5d4c507f2a080f0001912ed3","JN_12",158,20,23,1,1.55099988
"1077","5d4c507f2a080f0001912ed3","JN_12",159,10,29,1,1.708999872
"1078","5d4c507f2a080f0001912ed3","JN_12",160,10,35,1,1.539000034
"1079","5d4c507f2a080f0001912ed3","JN_12",161,2,40,1,1.866999865
"1080","5d4c507f2a080f0001912ed3","JN_12",162,3,14,1,1.529000044
"1081","5d4c507f2a080f0001912ed3","JN_12",163,3,37,1,1.36500001
"1082","5d4c507f2a080f0001912ed3","JN_12",164,6,21,0,1.392999887
"1083","5d4c507f2a080f0001912ed3","JN_12",165,3,36,1,1.31099987
"1084","5d4c507f2a080f0001912ed3","JN_12",166,1,40,1,1.370999813
"1085","5d4c507f2a080f0001912ed3","JN_12",167,6,30,1,1.421999931
"1086","5d4c507f2a080f0001912ed3","JN_12",168,2,26,1,1.503000021
"1087","5d4c507f2a080f0001912ed3","JN_12",169,1,4,1,1.390000105
"1088","5d4c507f2a080f0001912ed3","JN_12",170,10,39,1,1.56799984
"1089","5d4c507f2a080f0001912ed3","JN_12",171,20,28,0,1.552999973
"1090","5d4c507f2a080f0001912ed3","JN_12",172,2,30,1,1.400000095
"1091","5d4c507f2a080f0001912ed3","JN_12",173,2,3,1,1.514999866
"1092","5d4c507f2a080f0001912ed3","JN_12",174,3,21,1,1.863999844
"1093","5d4c507f2a080f0001912ed3","JN_12",175,6,36,1,1.69299984
"1094","5d4c507f2a080f0001912ed3","JN_12",176,4,38,1,1.756999969
"1095","5d4c507f2a080f0001912ed3","JN_12",177,1,38,1,1.708999872
"1096","5d4c507f2a080f0001912ed3","JN_12",178,4,28,0,1.502999783
"1097","5d4c507f2a080f0001912ed3","JN_12",179,4,10,1,1.581999779
"1098","5d4c507f2a080f0001912ed3","JN_12",180,20,5,1,1.730999947
"1099","5d4c507f2a080f0001912ed3","JN_12",181,4,39,1,1.566999912
"1100","5d4c507f2a080f0001912ed3","JN_12",182,2,29,1,1.687999964
"1101","5d4c507f2a080f0001912ed3","JN_12",183,1,33,1,1.61500001
"1102","5d4c507f2a080f0001912ed3","JN_12",184,6,17,1,1.473999739
"1103","5d4c507f2a080f0001912ed3","JN_12",185,6,3,0,1.588999987
"1104","5d4c507f2a080f0001912ed3","JN_12",186,6,7,1,1.421999931
"1105","5d4c507f2a080f0001912ed3","JN_12",187,1,27,1,1.581999779
"1106","5d4c507f2a080f0001912ed3","JN_12",188,6,35,0,1.542000055
"1107","5d4c507f2a080f0001912ed3","JN_12",189,2,11,1,1.416999817
"1108","5d4c507f2a080f0001912ed3","JN_12",190,2,22,1,1.295000076
"1109","5d4c507f2a080f0001912ed3","JN_12",191,2,15,1,1.605999947
"1110","5d4c507f2a080f0001912ed3","JN_12",192,3,24,0,1.767999887
"1111","5d4c507f2a080f0001912ed3","JN_12",193,10,3,0,1.421999931
"1112","5d4c507f2a080f0001912ed3","JN_12",194,10,30,1,2.049999952
"1113","5d4c507f2a080f0001912ed3","JN_12",195,6,5,0,1.678999901
"1114","5d4c507f2a080f0001912ed3","JN_12",196,6,29,0,1.388999939
"1115","5d4c507f2a080f0001912ed3","JN_12",197,3,3,1,1.414999962
"1116","5d4c507f2a080f0001912ed3","JN_12",198,10,16,1,1.562000036
"1117","5d4c507f2a080f0001912ed3","JN_12",199,2,12,0,1.74000001
"1118","5d4c507f2a080f0001912ed3","JN_12",200,1,2,1,1.406999826
"1119","5d4c507f2a080f0001912ed3","JN_12",201,10,12,1,1.281999826
"1120","5d4c507f2a080f0001912ed3","JN_12",202,20,4,0,1.552000046
"1121","5d4c507f2a080f0001912ed3","JN_12",203,2,2,1,1.565000057
"1122","5d4c507f2a080f0001912ed3","JN_12",204,3,10,0,1.784999847
"1123","5d4c507f2a080f0001912ed3","JN_12",205,4,35,0,1.184999943
"1124","5d4c507f2a080f0001912ed3","JN_12",206,6,4,1,1.383999825
"1125","5d4c507f2a080f0001912ed3","JN_12",207,20,33,1,1.549999952
"1126","5d4c507f2a080f0001912ed3","JN_12",208,6,37,1,1.332999945
"1127","5d4c507f2a080f0001912ed3","JN_12",209,6,2,0,1.523000002
"1128","5d4c507f2a080f0001912ed3","JN_12",210,2,19,1,1.416999817
"1129","5d4c507f2a080f0001912ed3","JN_12",211,4,37,1,1.726999998
"1130","5d4c507f2a080f0001912ed3","JN_12",213,10,23,0,1.805000067
"1131","5d4c507f2a080f0001912ed3","JN_12",214,10,37,0,1.731999874
"1132","5d4c507f2a080f0001912ed3","JN_12",215,1,23,1,1.61899972
"1133","5d4c507f2a080f0001912ed3","JN_12",216,2,5,1,1.75
"1134","5d4c507f2a080f0001912ed3","JN_12",217,10,18,0,2.256999969
"1135","5d4c507f2a080f0001912ed3","JN_12",218,4,22,0,1.756999969
"1136","5d4c507f2a080f0001912ed3","JN_12",219,2,20,0,1.773000002
"1137","5d4c507f2a080f0001912ed3","JN_12",220,1,6,1,1.594000101
"1138","5d4c507f2a080f0001912ed3","JN_12",221,6,18,0,1.81799984
"1139","5d4c507f2a080f0001912ed3","JN_12",222,1,30,1,1.652999878
"1140","5d4c507f2a080f0001912ed3","JN_12",223,10,24,0,1.498999834
"1141","5d4c507f2a080f0001912ed3","JN_12",224,4,24,0,1.625999928
"1142","5d4c507f2a080f0001912ed3","JN_12",226,2,10,0,1.618000031
"1143","5d4c507f2a080f0001912ed3","JN_12",227,2,35,1,1.43599987
"1144","5d4c507f2a080f0001912ed3","JN_12",228,3,6,1,1.474999905
"1145","5d4c507f2a080f0001912ed3","JN_12",230,20,27,1,1.392999887
"1146","5d4c507f2a080f0001912ed3","JN_12",231,1,39,1,1.838000059
"1147","5d4c507f2a080f0001912ed3","JN_12",232,1,10,1,1.852999926
"1148","5d4c507f2a080f0001912ed3","JN_12",233,3,9,1,1.635999918
"1149","5d4c507f2a080f0001912ed3","JN_12",234,4,31,1,1.623999834
"1150","5d4c507f2a080f0001912ed3","JN_12",235,6,33,0,1.944999933
"1151","5d4c507f2a080f0001912ed3","JN_12",236,6,5,0,1.735000134
"1152","5d4c507f2a080f0001912ed3","JN_12",237,10,22,0,1.689999819
"1153","5d4c507f2a080f0001912ed3","JN_12",238,10,5,1,1.506000042
"1154","5d4c507f2a080f0001912ed3","JN_12",239,4,16,0,1.781999826
"1155","5d4c507f2a080f0001912ed3","JN_12",241,1,14,0,1.592999935
"1156","5d4c507f2a080f0001912ed3","JN_12",242,10,31,1,1.614999771
"1157","5d4c507f2a080f0001912ed3","JN_12",243,1,22,1,1.527999878
"1158","5d4c507f2a080f0001912ed3","JN_12",244,1,9,1,1.59100008
"1159","5d4c507f2a080f0001912ed3","JN_12",245,20,15,1,1.487999916
"1160","5d4c507f2a080f0001912ed3","JN_12",246,20,14,0,1.625
"1161","5d4c507f2a080f0001912ed3","JN_12",247,10,2,1,1.689999819
"1162","5d4c507f2a080f0001912ed3","JN_12",248,3,34,1,2.304000139
"1163","5d4c507f2a080f0001912ed3","JN_12",249,6,27,1,1.822000027
"1164","5d4c507f2a080f0001912ed3","JN_12",250,20,4,1,1.648999929
"1165","5d4c507f2a080f0001912ed3","JN_12",251,2,23,1,1.867999792
"1166","5d4c507f2a080f0001912ed3","JN_12",252,6,12,0,1.853999853
"1167","5d4c507f2a080f0001912ed3","JN_12",253,4,13,0,1.482999802
"1168","5d4c507f2a080f0001912ed3","JN_12",254,10,17,0,1.72699976
"1169","5d4c507f2a080f0001912ed3","JN_12",255,10,20,1,1.777999878
"1170","5d4c507f2a080f0001912ed3","JN_12",256,4,9,1,1.732000113
"1171","5d4c507f2a080f0001912ed3","JN_12",257,6,24,0,1.629999876
"1172","5d4c507f2a080f0001912ed3","JN_12",258,10,10,1,1.819999933
"1173","5d4c507f2a080f0001912ed3","JN_12",259,20,6,0,1.684000015
"1174","5d4c507f2a080f0001912ed3","JN_12",260,1,8,1,1.519000053
"1175","5d4c507f2a080f0001912ed3","JN_12",261,20,30,0,1.713000059
"1176","5d4c507f2a080f0001912ed3","JN_12",262,2,7,1,1.469000101
"1177","5d4c507f2a080f0001912ed3","JN_12",264,20,21,1,1.829999924
"1178","5d4c507f2a080f0001912ed3","JN_12",265,6,26,0,1.902999878
"1179","5d4c507f2a080f0001912ed3","JN_12",266,3,39,1,1.372999907
"1180","5d4c507f2a080f0001912ed3","JN_12",267,20,9,1,1.573999882
"1181","5d4c507f2a080f0001912ed3","JN_12",269,20,40,1,1.689999819
"1182","5d4c507f2a080f0001912ed3","JN_12",270,6,19,1,1.512999773
"1183","5d4c507f2a080f0001912ed3","JN_12",271,1,11,1,1.91899991
"1184","5d4c507f2a080f0001912ed3","JN_12",272,2,1,1,1.682999849
"1185","5d4c507f2a080f0001912ed3","JN_12",273,6,38,1,1.821999788
"1186","5d4c507f2a080f0001912ed3","JN_12",274,1,1,0,1.753000021
"1187","5d4c507f2a080f0001912ed3","JN_12",276,20,5,1,1.746999979
"1188","5d4c507f2a080f0001912ed3","JN_12",277,1,4,1,1.507999897
"1189","5d4c507f2a080f0001912ed3","JN_12",278,4,36,1,1.59800005
"1190","5d4c507f2a080f0001912ed3","JN_12",280,10,15,1,1.602999926
"1191","5d4c507f2a080f0001912ed3","JN_12",281,20,34,1,1.767999887
"1192","5d4c507f2a080f0001912ed3","JN_12",282,10,34,0,1.690999985
"1193","5d4c507f2a080f0001912ed3","JN_12",283,20,19,1,1.750999928
"1194","5d4c507f2a080f0001912ed3","JN_12",284,4,3,1,1.409999847
"1195","5d4c507f2a080f0001912ed3","JN_12",285,3,38,1,2.208999872
"1196","5d4c507f2a080f0001912ed3","JN_12",286,10,5,1,1.704999924
"1197","5d4c507f2a080f0001912ed3","JN_12",287,3,11,1,1.385999918
"1198","5d4c507f2a080f0001912ed3","JN_12",288,6,39,1,1.704999924
"1199","5d4c507f2a080f0001912ed3","JN_12",289,6,34,1,1.781999826
"1200","5d4c507f2a080f0001912ed3","JN_12",290,4,2,1,1.68900013
"1201","5d4c507f2a080f0001912ed3","JN_12",291,4,30,1,1.529999733
"1202","5d4c507f2a080f0001912ed3","JN_12",292,3,7,1,1.736999989
"1203","5d4c507f2a080f0001912ed3","JN_12",293,2,2,1,1.484999895
"1204","5d4c507f2a080f0001912ed3","JN_12",294,1,31,0,1.454999924
"1205","5d4c507f2a080f0001912ed3","JN_12",295,3,5,0,1.434999943
"1206","5d4c507f2a080f0001912ed3","JN_12",296,1,5,1,1.954999924
"1207","5d4c507f2a080f0001912ed3","JN_12",297,3,1,1,1.399999857
"1208","5d4c507f2a080f0001912ed3","JN_12",298,2,16,1,1.962999821
"1209","5d4c507f2a080f0001912ed3","JN_12",299,6,40,1,1.540999889
"1210","5d4c507f2a080f0001912ed3","JN_12",300,10,21,0,1.734999895
"1211","5d4c507f2a080f0001912ed3","JN_12",301,3,15,0,1.867999792
"1212","5d4c507f2a080f0001912ed3","JN_12",302,3,28,0,1.711999893
"1213","5d4c507f2a080f0001912ed3","JN_12",303,3,2,1,1.361000061
"1214","5d4c507f2a080f0001912ed3","JN_12",304,10,7,0,1.369999886
"1215","5d4c507f2a080f0001912ed3","JN_12",305,20,26,0,1.431999922
"1216","5d4c507f2a080f0001912ed3","JN_12",306,3,5,0,1.36899972
"1217","5d4c507f2a080f0001912ed3","JN_12",307,20,7,1,1.468999863
"1218","5d4c507f2a080f0001912ed3","JN_12",308,2,4,1,1.503999949
"1219","5d4c507f2a080f0001912ed3","JN_12",309,6,1,0,1.65199995
"1220","5d4c507f2a080f0001912ed3","JN_12",310,3,22,0,1.51699996
"1221","5d4c507f2a080f0001912ed3","JN_12",311,1,12,0,1.834000111
"1222","5d4c507f2a080f0001912ed3","JN_12",312,2,21,0,1.607000113
"1223","5d4c507f2a080f0001912ed3","JN_12",313,3,13,0,1.734999895
"1224","5d4c507f2a080f0001912ed3","JN_12",314,10,6,0,1.438999891
"1225","5d4c507f2a080f0001912ed3","JN_12",315,4,1,1,1.508000135
"1226","5ddd81685be2df000bcd679a","JN_13",1,10,11,1,2.556000233
"1227","5ddd81685be2df000bcd679a","JN_13",2,20,10,1,1.653000116
"1228","5ddd81685be2df000bcd679a","JN_13",3,20,1,1,1.770000219
"1229","5ddd81685be2df000bcd679a","JN_13",4,1,23,1,1.664000273
"1230","5ddd81685be2df000bcd679a","JN_13",5,6,31,1,1.930999994
"1231","5ddd81685be2df000bcd679a","JN_13",6,1,14,1,1.721000195
"1232","5ddd81685be2df000bcd679a","JN_13",7,3,2,1,1.902000189
"1233","5ddd81685be2df000bcd679a","JN_13",8,3,6,1,1.725000143
"1234","5ddd81685be2df000bcd679a","JN_13",9,6,3,1,1.753000259
"1235","5ddd81685be2df000bcd679a","JN_13",10,2,5,1,1.766000032
"1236","5ddd81685be2df000bcd679a","JN_13",11,2,17,0,1.803000212
"1237","5ddd81685be2df000bcd679a","JN_13",12,2,31,1,1.639000177
"1238","5ddd81685be2df000bcd679a","JN_13",13,4,1,1,4.455000162
"1239","5ddd81685be2df000bcd679a","JN_13",14,4,3,0,1.585000038
"1240","5ddd81685be2df000bcd679a","JN_13",15,20,20,1,1.881000042
"1241","5ddd81685be2df000bcd679a","JN_13",16,4,2,0,1.704000235
"1242","5ddd81685be2df000bcd679a","JN_13",17,3,39,0,1.835000277
"1243","5ddd81685be2df000bcd679a","JN_13",18,2,28,1,1.664000034
"1244","5ddd81685be2df000bcd679a","JN_13",19,2,21,1,1.723000288
"1245","5ddd81685be2df000bcd679a","JN_13",20,20,4,0,2.99000001
"1246","5ddd81685be2df000bcd679a","JN_13",21,10,1,0,1.787000179
"1247","5ddd81685be2df000bcd679a","JN_13",22,4,13,0,1.720000267
"1248","5ddd81685be2df000bcd679a","JN_13",23,10,26,1,1.810000181
"1249","5ddd81685be2df000bcd679a","JN_13",24,10,33,0,1.798000336
"1250","5ddd81685be2df000bcd679a","JN_13",25,3,28,1,1.68200016
"1251","5ddd81685be2df000bcd679a","JN_13",26,6,2,0,1.688000202
"1252","5ddd81685be2df000bcd679a","JN_13",27,20,31,1,1.744000196
"1253","5ddd81685be2df000bcd679a","JN_13",28,10,8,1,1.737000227
"1254","5ddd81685be2df000bcd679a","JN_13",29,20,8,0,1.855000257
"1255","5ddd81685be2df000bcd679a","JN_13",30,2,27,1,1.706000328
"1256","5ddd81685be2df000bcd679a","JN_13",31,3,36,0,1.991000175
"1257","5ddd81685be2df000bcd679a","JN_13",32,4,17,0,1.836000204
"1258","5ddd81685be2df000bcd679a","JN_13",33,1,39,1,1.788000107
"1259","5ddd81685be2df000bcd679a","JN_13",34,6,10,0,1.732000113
"1260","5ddd81685be2df000bcd679a","JN_13",35,4,37,1,1.938000202
"1261","5ddd81685be2df000bcd679a","JN_13",36,2,3,0,1.844000101
"1262","5ddd81685be2df000bcd679a","JN_13",37,4,35,0,2.704000235
"1263","5ddd81685be2df000bcd679a","JN_13",38,1,27,1,2.587000132
"1264","5ddd81685be2df000bcd679a","JN_13",39,20,3,0,2.200000286
"1265","5ddd81685be2df000bcd679a","JN_13",40,2,4,0,1.731000185
"1266","5ddd81685be2df000bcd679a","JN_13",41,20,25,0,1.913000107
"1267","5ddd81685be2df000bcd679a","JN_13",42,3,32,1,2.404000044
"1268","5ddd81685be2df000bcd679a","JN_13",43,1,8,1,2.255000114
"1269","5ddd81685be2df000bcd679a","JN_13",44,6,30,0,3.598000288
"1270","5ddd81685be2df000bcd679a","JN_13",45,1,18,0,2.569000244
"1271","5ddd81685be2df000bcd679a","JN_13",46,10,39,0,2.289000034
"1272","5ddd81685be2df000bcd679a","JN_13",47,3,22,0,1.786000252
"1273","5ddd81685be2df000bcd679a","JN_13",48,4,2,0,1.83700037
"1274","5ddd81685be2df000bcd679a","JN_13",49,20,32,1,1.779000044
"1275","5ddd81685be2df000bcd679a","JN_13",50,2,38,0,1.787000179
"1276","5ddd81685be2df000bcd679a","JN_13",51,3,24,1,1.753000259
"1277","5ddd81685be2df000bcd679a","JN_13",52,4,3,0,1.761000395
"1278","5ddd81685be2df000bcd679a","JN_13",53,2,36,1,1.743000269
"1279","5ddd81685be2df000bcd679a","JN_13",54,4,9,0,2.248000145
"1280","5ddd81685be2df000bcd679a","JN_13",55,2,22,0,2.537000179
"1281","5ddd81685be2df000bcd679a","JN_13",56,10,35,0,1.904999971
"1282","5ddd81685be2df000bcd679a","JN_13",57,1,19,1,1.819000244
"1283","5ddd81685be2df000bcd679a","JN_13",58,10,22,0,2.626000166
"1284","5ddd81685be2df000bcd679a","JN_13",59,20,5,1,1.597000122
"1285","5ddd81685be2df000bcd679a","JN_13",60,1,25,1,1.656000376
"1286","5ddd81685be2df000bcd679a","JN_13",61,4,26,0,2.049000263
"1287","5ddd81685be2df000bcd679a","JN_13",62,1,16,0,2.630000114
"1288","5ddd81685be2df000bcd679a","JN_13",63,1,3,0,2.213000059
"1289","5ddd81685be2df000bcd679a","JN_13",64,6,17,0,2.626000166
"1290","5ddd81685be2df000bcd679a","JN_13",65,20,17,0,2.43900013
"1291","5ddd81685be2df000bcd679a","JN_13",66,1,31,1,1.77300024
"1292","5ddd81685be2df000bcd679a","JN_13",67,3,35,0,2.113000154
"1293","5ddd81685be2df000bcd679a","JN_13",68,6,6,0,1.725000143
"1294","5ddd81685be2df000bcd679a","JN_13",69,10,30,1,1.697999954
"1295","5ddd81685be2df000bcd679a","JN_13",70,4,19,1,1.808000326
"1296","5ddd81685be2df000bcd679a","JN_13",71,4,30,1,1.7900002
"1297","5ddd81685be2df000bcd679a","JN_13",72,4,29,0,1.976999998
"1298","5ddd81685be2df000bcd679a","JN_13",73,20,2,1,1.674000263
"1299","5ddd81685be2df000bcd679a","JN_13",74,4,40,0,1.607000113
"1300","5ddd81685be2df000bcd679a","JN_13",75,1,3,1,1.788000107
"1301","5ddd81685be2df000bcd679a","JN_13",76,20,7,0,2.076000214
"1302","5ddd81685be2df000bcd679a","JN_13",77,2,34,1,1.657000303
"1303","5ddd81685be2df000bcd679a","JN_13",78,1,4,1,1.674000025
"1304","5ddd81685be2df000bcd679a","JN_13",79,3,20,1,2.86500001
"1305","5ddd81685be2df000bcd679a","JN_13",80,20,21,0,2.137000084
"1306","5ddd81685be2df000bcd679a","JN_13",81,20,6,1,2.974000216
"1307","5ddd81685be2df000bcd679a","JN_13",82,6,28,1,2.072000265
"1308","5ddd81685be2df000bcd679a","JN_13",83,2,12,1,1.828999996
"1309","5ddd81685be2df000bcd679a","JN_13",84,2,30,0,2.115000248
"1310","5ddd81685be2df000bcd679a","JN_13",85,20,13,1,1.995000362
"1311","5ddd81685be2df000bcd679a","JN_13",86,6,38,0,1.721000195
"1312","5ddd81685be2df000bcd679a","JN_13",87,1,38,0,1.72900033
"1313","5ddd81685be2df000bcd679a","JN_13",88,6,25,0,1.586000204
"1314","5ddd81685be2df000bcd679a","JN_13",89,2,24,0,1.670000076
"1315","5ddd81685be2df000bcd679a","JN_13",90,2,37,0,1.662000179
"1316","5ddd81685be2df000bcd679a","JN_13",91,6,15,0,1.77300024
"1317","5ddd81685be2df000bcd679a","JN_13",92,2,1,1,2.346000195
"1318","5ddd81685be2df000bcd679a","JN_13",93,10,9,1,1.990000248
"1319","5ddd81685be2df000bcd679a","JN_13",94,20,36,1,1.82400012
"1320","5ddd81685be2df000bcd679a","JN_13",95,10,17,0,4.877000093
"1321","5ddd81685be2df000bcd679a","JN_13",96,6,13,0,4.944000244
"1322","5ddd81685be2df000bcd679a","JN_13",97,3,5,0,3.209000111
"1323","5ddd81685be2df000bcd679a","JN_13",98,6,16,1,2.704000235
"1324","5ddd81685be2df000bcd679a","JN_13",99,3,14,0,1.912000179
"1325","5ddd81685be2df000bcd679a","JN_13",100,3,26,1,1.809000254
"1326","5ddd81685be2df000bcd679a","JN_13",101,10,19,0,2.127000332
"1327","5ddd81685be2df000bcd679a","JN_13",102,20,34,1,2.995000124
"1328","5ddd81685be2df000bcd679a","JN_13",103,4,33,1,2.475000143
"1329","5ddd81685be2df000bcd679a","JN_13",104,6,26,1,1.819000244
"1330","5ddd81685be2df000bcd679a","JN_13",105,1,1,1,2.411000252
"1331","5ddd81685be2df000bcd679a","JN_13",108,6,1,1,2.55700016
"1332","5ddd81685be2df000bcd679a","JN_13",109,6,32,0,2.026000261
"1333","5ddd81685be2df000bcd679a","JN_13",110,2,18,0,2.404000282
"1334","5ddd81685be2df000bcd679a","JN_13",111,1,21,0,2.322000027
"1335","5ddd81685be2df000bcd679a","JN_13",112,10,15,1,1.823000193
"1336","5ddd81685be2df000bcd679a","JN_13",113,20,2,1,2.009000301
"1337","5ddd81685be2df000bcd679a","JN_13",114,20,28,0,1.978000164
"1338","5ddd81685be2df000bcd679a","JN_13",115,2,29,1,1.792000294
"1339","5ddd81685be2df000bcd679a","JN_13",116,6,34,0,2.075000048
"1340","5ddd81685be2df000bcd679a","JN_13",117,2,2,1,1.937000036
"1341","5ddd81685be2df000bcd679a","JN_13",118,3,3,1,2.403000116
"1342","5ddd81685be2df000bcd679a","JN_13",119,6,1,1,2.237000227
"1343","5ddd81685be2df000bcd679a","JN_13",120,6,29,0,1.858999968
"1344","5ddd81685be2df000bcd679a","JN_13",121,6,40,1,1.548000097
"1345","5ddd81685be2df000bcd679a","JN_13",122,1,12,1,2.119000196
"1346","5ddd81685be2df000bcd679a","JN_13",123,10,18,1,2.003000021
"1347","5ddd81685be2df000bcd679a","JN_13",124,20,18,1,1.863000154
"1348","5ddd81685be2df000bcd679a","JN_13",125,6,20,1,2.177000284
"1349","5ddd81685be2df000bcd679a","JN_13",126,1,37,1,2.726000071
"1350","5ddd81685be2df000bcd679a","JN_13",127,1,28,1,1.877000093
"1351","5ddd81685be2df000bcd679a","JN_13",128,20,1,1,1.998000145
"1352","5ddd81685be2df000bcd679a","JN_13",129,2,15,0,3.470000267
"1353","5ddd81685be2df000bcd679a","JN_13",130,20,4,1,3.503000259
"1354","5ddd81685be2df000bcd679a","JN_13",131,2,20,1,1.869000196
"1355","5ddd81685be2df000bcd679a","JN_13",132,1,17,1,2.809000254
"1356","5ddd81685be2df000bcd679a","JN_13",133,2,14,1,1.661000013
"1357","5ddd81685be2df000bcd679a","JN_13",134,20,24,1,1.878000021
"1358","5ddd81685be2df000bcd679a","JN_13",135,10,21,0,2.152000189
"1359","5ddd81685be2df000bcd679a","JN_13",136,20,9,0,2.052999973
"1360","5ddd81685be2df000bcd679a","JN_13",137,1,34,1,1.680000067
"1361","5ddd81685be2df000bcd679a","JN_13",138,10,34,0,2.246999979
"1362","5ddd81685be2df000bcd679a","JN_13",139,1,6,1,2.075000048
"1363","5ddd81685be2df000bcd679a","JN_13",140,4,39,1,1.80700016
"1364","5ddd81685be2df000bcd679a","JN_13",141,3,29,1,2.428000212
"1365","5ddd81685be2df000bcd679a","JN_13",142,10,16,1,3.937000275
"1366","5ddd81685be2df000bcd679a","JN_13",143,1,1,1,1.892000198
"1367","5ddd81685be2df000bcd679a","JN_13",144,20,30,1,2.197000027
"1368","5ddd81685be2df000bcd679a","JN_13",145,20,16,1,1.652000189
"1369","5ddd81685be2df000bcd679a","JN_13",146,6,4,1,2.576000214
"1370","5ddd81685be2df000bcd679a","JN_13",147,1,35,0,2.837000132
"1371","5ddd81685be2df000bcd679a","JN_13",148,10,6,0,2.499000311
"1372","5ddd81685be2df000bcd679a","JN_13",149,10,7,1,1.720000267
"1373","5ddd81685be2df000bcd679a","JN_13",150,1,40,1,1.740000248
"1374","5ddd81685be2df000bcd679a","JN_13",151,4,22,1,1.883000135
"1375","5ddd81685be2df000bcd679a","JN_13",152,1,11,0,2.197000027
"1376","5ddd81685be2df000bcd679a","JN_13",153,10,40,1,2.435000181
"1377","5ddd81685be2df000bcd679a","JN_13",154,4,27,1,3.003000259
"1378","5ddd81685be2df000bcd679a","JN_13",155,20,35,1,2.936000347
"1379","5ddd81685be2df000bcd679a","JN_13",156,4,12,1,2.337000132
"1380","5ddd81685be2df000bcd679a","JN_13",158,6,3,1,3.102000237
"1381","5ddd81685be2df000bcd679a","JN_13",159,6,12,0,1.731000185
"1382","5ddd81685be2df000bcd679a","JN_13",160,3,27,1,1.441000223
"1383","5ddd81685be2df000bcd679a","JN_13",161,6,19,1,0.870000124
"1384","5ddd81685be2df000bcd679a","JN_13",162,4,5,1,0.770000219
"1385","5ddd81685be2df000bcd679a","JN_13",163,2,13,1,1.427000046
"1386","5ddd81685be2df000bcd679a","JN_13",164,2,1,1,0.991000175
"1387","5ddd81685be2df000bcd679a","JN_13",165,3,30,0,1.537000179
"1388","5ddd81685be2df000bcd679a","JN_13",166,6,39,1,1.220000267
"1389","5ddd81685be2df000bcd679a","JN_13",167,4,28,1,1.361000299
"1390","5ddd81685be2df000bcd679a","JN_13",168,3,33,0,1.272000074
"1391","5ddd81685be2df000bcd679a","JN_13",169,20,3,1,2.143000126
"1392","5ddd81685be2df000bcd679a","JN_13",170,3,10,0,3.403000116
"1393","5ddd81685be2df000bcd679a","JN_13",171,2,11,1,1.548000097
"1394","5ddd81685be2df000bcd679a","JN_13",172,20,27,0,1.640000343
"1395","5ddd81685be2df000bcd679a","JN_13",173,10,2,0,1.920000076
"1396","5ddd81685be2df000bcd679a","JN_13",174,4,31,0,2.011000156
"1397","5ddd81685be2df000bcd679a","JN_13",175,10,5,1,1.84100008
"1398","5ddd81685be2df000bcd679a","JN_13",176,4,25,1,1.537000179
"1399","5ddd81685be2df000bcd679a","JN_13",177,10,1,1,3.005000114
"1400","5ddd81685be2df000bcd679a","JN_13",178,3,15,1,2.328000307
"1401","5ddd81685be2df000bcd679a","JN_13",179,6,21,1,1.819000244
"1402","5ddd81685be2df000bcd679a","JN_13",180,10,27,0,1.222000122
"1403","5ddd81685be2df000bcd679a","JN_13",181,2,19,0,2.224000216
"1404","5ddd81685be2df000bcd679a","JN_13",182,2,10,1,4.587000132
"1405","5ddd81685be2df000bcd679a","JN_13",183,3,16,0,1.642000198
"1406","5ddd81685be2df000bcd679a","JN_13",184,2,25,0,1.595000029
"1407","5ddd81685be2df000bcd679a","JN_13",185,2,40,1,1.103000164
"1408","5ddd81685be2df000bcd679a","JN_13",186,6,27,0,2.687000275
"1409","5ddd81685be2df000bcd679a","JN_13",187,1,9,1,2.060000181
"1410","5ddd81685be2df000bcd679a","JN_13",188,4,5,0,2.453999996
"1411","5ddd81685be2df000bcd679a","JN_13",189,6,35,0,2.454000235
"1412","5ddd81685be2df000bcd679a","JN_13",190,20,11,0,4.698000193
"1413","5ddd81685be2df000bcd679a","JN_13",191,3,31,1,4.68900013
"1414","5ddd81685be2df000bcd679a","JN_13",192,4,21,0,2.354000092
"1415","5ddd81685be2df000bcd679a","JN_13",193,3,9,1,4.410000324
"1416","5ddd81685be2df000bcd679a","JN_13",194,20,12,1,2.036000252
"1417","5ddd81685be2df000bcd679a","JN_13",195,4,32,1,2.046000242
"1418","5ddd81685be2df000bcd679a","JN_13",196,4,10,0,2.187000275
"1419","5ddd81685be2df000bcd679a","JN_13",197,3,4,1,2.206000328
"1420","5ddd81685be2df000bcd679a","JN_13",198,10,24,1,1.886000156
"1421","5ddd81685be2df000bcd679a","JN_13",199,1,36,0,2.512000322
"1422","5ddd81685be2df000bcd679a","JN_13",201,1,7,1,2.27699995
"1423","5ddd81685be2df000bcd679a","JN_13",202,10,5,0,1.696000099
"1424","5ddd81685be2df000bcd679a","JN_13",203,10,4,1,3.643000126
"1425","5ddd81685be2df000bcd679a","JN_13",204,10,31,1,1.993000269
"1426","5ddd81685be2df000bcd679a","JN_13",205,10,25,1,2.286000252
"1427","5ddd81685be2df000bcd679a","JN_13",206,20,38,1,1.848000288
"1428","5ddd81685be2df000bcd679a","JN_13",207,3,2,1,3.42200017
"1429","5ddd81685be2df000bcd679a","JN_13",208,20,19,0,2.012000084
"1430","5ddd81685be2df000bcd679a","JN_13",209,2,16,1,1.926000118
"1431","5ddd81685be2df000bcd679a","JN_13",210,1,32,0,2.478000164
"1432","5ddd81685be2df000bcd679a","JN_13",211,20,15,1,2.38100028
"1433","5ddd81685be2df000bcd679a","JN_13",212,1,2,1,3.805000067
"1434","5ddd81685be2df000bcd679a","JN_13",213,2,4,0,4.282000303
"1435","5ddd81685be2df000bcd679a","JN_13",214,20,37,0,2.511000156
"1436","5ddd81685be2df000bcd679a","JN_13",216,4,8,1,1.688000202
"1437","5ddd81685be2df000bcd679a","JN_13",217,6,14,1,1.690000057
"1438","5ddd81685be2df000bcd679a","JN_13",218,10,3,0,1.742000103
"1439","5ddd81685be2df000bcd679a","JN_13",219,2,8,1,1.632000208
"1440","5ddd81685be2df000bcd679a","JN_13",220,1,29,1,1.853000164
"1441","5ddd81685be2df000bcd679a","JN_13",221,2,39,0,1.653000355
"1442","5ddd81685be2df000bcd679a","JN_13",222,10,2,1,1.437000275
"1443","5ddd81685be2df000bcd679a","JN_13",223,10,29,1,1.688000202
"1444","5ddd81685be2df000bcd679a","JN_13",224,20,29,1,1.736000061
"1445","5ddd81685be2df000bcd679a","JN_13",225,10,36,0,1.620000124
"1446","5ddd81685be2df000bcd679a","JN_13",226,4,16,1,4.375000238
"1447","5ddd81685be2df000bcd679a","JN_13",227,1,13,1,1.736000061
"1448","5ddd81685be2df000bcd679a","JN_13",228,3,12,0,1.80700016
"1449","5ddd81685be2df000bcd679a","JN_13",229,4,1,1,1.926000118
"1450","5ddd81685be2df000bcd679a","JN_13",230,20,5,0,1.894999981
"1451","5ddd81685be2df000bcd679a","JN_13",231,6,5,0,3.053000212
"1452","5ddd81685be2df000bcd679a","JN_13",232,4,15,1,2.096000195
"1453","5ddd81685be2df000bcd679a","JN_13",233,4,4,0,1.796000004
"1454","5ddd81685be2df000bcd679a","JN_13",234,10,23,1,2.470000267
"1455","5ddd81685be2df000bcd679a","JN_13",235,20,40,1,2.026000261
"1456","5ddd81685be2df000bcd679a","JN_13",236,10,28,1,2.36400032
"1457","5ddd81685be2df000bcd679a","JN_13",237,3,40,1,3.936000109
"1458","5ddd81685be2df000bcd679a","JN_13",238,1,30,1,3.010000229
"1459","5ddd81685be2df000bcd679a","JN_13",239,2,32,0,2.009000301
"1460","5ddd81685be2df000bcd679a","JN_13",240,4,38,0,3.890000105
"1461","5ddd81685be2df000bcd679a","JN_13",241,4,7,0,4.126000166
"1462","5ddd81685be2df000bcd679a","JN_13",242,20,26,0,3.374000311
"1463","5ddd81685be2df000bcd679a","JN_13",243,3,11,0,2.170000076
"1464","5ddd81685be2df000bcd679a","JN_13",244,3,5,1,1.670000076
"1465","5ddd81685be2df000bcd679a","JN_13",245,10,13,0,2.060000181
"1466","5ddd81685be2df000bcd679a","JN_13",246,3,25,1,2.263000011
"1467","5ddd81685be2df000bcd679a","JN_13",247,20,23,0,2.327000141
"1468","5ddd81685be2df000bcd679a","JN_13",248,6,33,0,2.819000244
"1469","5ddd81685be2df000bcd679a","JN_13",249,6,4,1,3.014000177
"1470","5ddd81685be2df000bcd679a","JN_13",250,20,22,0,3.095000267
"1471","5ddd81685be2df000bcd679a","JN_13",251,6,8,1,2.504000187
"1472","5ddd81685be2df000bcd679a","JN_13",252,1,2,1,1.974000216
"1473","5ddd81685be2df000bcd679a","JN_13",253,4,14,1,4.659000158
"1474","5ddd81685be2df000bcd679a","JN_13",254,10,14,0,2.495000124
"1475","5ddd81685be2df000bcd679a","JN_13",255,3,23,1,2.986000061
"1476","5ddd81685be2df000bcd679a","JN_13",256,3,21,0,1.671000242
"1477","5ddd81685be2df000bcd679a","JN_13",257,1,20,0,2.021000385
"1478","5ddd81685be2df000bcd679a","JN_13",258,2,2,0,3.453000069
"1479","5ddd81685be2df000bcd679a","JN_13",259,10,4,1,1.868999958
"1480","5ddd81685be2df000bcd679a","JN_13",260,6,22,1,4.00600028
"1481","5ddd81685be2df000bcd679a","JN_13",261,1,33,1,3.012000084
"1482","5ddd81685be2df000bcd679a","JN_13",262,10,32,0,2.820000172
"1483","5ddd81685be2df000bcd679a","JN_13",263,6,24,0,1.853000164
"1484","5ddd81685be2df000bcd679a","JN_13",264,1,26,1,1.880000114
"1485","5ddd81685be2df000bcd679a","JN_13",265,1,10,1,1.603000164
"1486","5ddd81685be2df000bcd679a","JN_13",266,6,36,1,2.966000319
"1487","5ddd81685be2df000bcd679a","JN_13",267,2,5,0,3.078000307
"1488","5ddd81685be2df000bcd679a","JN_13",268,20,33,1,2.509000063
"1489","5ddd81685be2df000bcd679a","JN_13",269,3,34,1,4.636000156
"1490","5ddd81685be2df000bcd679a","JN_13",271,2,6,0,1.561000109
"1491","5ddd81685be2df000bcd679a","JN_13",272,3,19,1,1.253000259
"1492","5ddd81685be2df000bcd679a","JN_13",273,6,23,0,1.520000219
"1493","5ddd81685be2df000bcd679a","JN_13",274,2,7,0,1.572000027
"1494","5ddd81685be2df000bcd679a","JN_13",275,4,11,0,1.481000185
"1495","5ddd81685be2df000bcd679a","JN_13",276,4,34,1,0.94900012
"1496","5ddd81685be2df000bcd679a","JN_13",277,3,38,1,0.653000355
"1497","5ddd81685be2df000bcd679a","JN_13",278,2,3,1,1.01300025
"1498","5ddd81685be2df000bcd679a","JN_13",279,3,37,1,1.602000237
"1499","5ddd81685be2df000bcd679a","JN_13",280,1,5,1,1.45600009
"1500","5ddd81685be2df000bcd679a","JN_13",281,4,6,1,3.820000172
"1501","5ddd81685be2df000bcd679a","JN_13",282,2,26,1,2.570000172
"1502","5ddd81685be2df000bcd679a","JN_13",283,6,37,1,1.620000124
"1503","5ddd81685be2df000bcd679a","JN_13",284,3,18,0,2.013000011
"1504","5ddd81685be2df000bcd679a","JN_13",285,10,38,0,1.759000063
"1505","5ddd81685be2df000bcd679a","JN_13",286,6,2,0,1.991000175
"1506","5ddd81685be2df000bcd679a","JN_13",287,4,36,0,2.213999987
"1507","5ddd81685be2df000bcd679a","JN_13",288,2,35,1,3.043000221
"1508","5ddd81685be2df000bcd679a","JN_13",289,20,39,1,2.572000027
"1509","5ddd81685be2df000bcd679a","JN_13",290,1,4,1,2.774000168
"1510","5ddd81685be2df000bcd679a","JN_13",291,4,4,1,3.019000292
"1511","5ddd81685be2df000bcd679a","JN_13",292,10,3,0,2.609000206
"1512","5ddd81685be2df000bcd679a","JN_13",293,3,7,1,2.436000109
"1513","5ddd81685be2df000bcd679a","JN_13",294,10,37,0,2.870000362
"1514","5ddd81685be2df000bcd679a","JN_13",295,1,5,1,2.582000256
"1515","5ddd81685be2df000bcd679a","JN_13",296,6,5,1,2.440000296
"1516","5ddd81685be2df000bcd679a","JN_13",297,6,18,1,1.914000273
"1517","5ddd81685be2df000bcd679a","JN_13",298,6,9,1,1.642000198
"1518","5ddd81685be2df000bcd679a","JN_13",299,4,18,1,1.686000347
"1519","5ddd81685be2df000bcd679a","JN_13",300,3,8,1,1.53000021
"1520","5ddd81685be2df000bcd679a","JN_13",301,20,14,1,0.826000214
"1521","5ddd81685be2df000bcd679a","JN_13",302,10,12,1,1.661000013
"1522","5ddd81685be2df000bcd679a","JN_13",303,4,20,0,1.803000212
"1523","5ddd81685be2df000bcd679a","JN_13",304,2,33,1,1.733000278
"1524","5ddd81685be2df000bcd679a","JN_13",305,4,24,1,2.076000214
"1525","5ddd81685be2df000bcd679a","JN_13",306,3,1,1,1.886000156
"1526","5ddd81685be2df000bcd679a","JN_13",307,6,11,1,1.669000149
"1527","5ddd81685be2df000bcd679a","JN_13",308,1,22,1,1.798000097
"1528","5ddd81685be2df000bcd679a","JN_13",309,3,3,0,1.697000265
"1529","5ddd81685be2df000bcd679a","JN_13",310,10,20,0,1.724000216
"1530","5ddd81685be2df000bcd679a","JN_13",311,1,24,0,2.319000244
"1531","5ddd81685be2df000bcd679a","JN_13",312,3,13,1,1.842000246
"1532","5ddd81685be2df000bcd679a","JN_13",313,6,7,1,3.053000212
"1533","5ddd81685be2df000bcd679a","JN_13",314,2,23,1,2.013000011
"1534","5ddd81685be2df000bcd679a","JN_13",315,3,1,1,1.003000021
"1535","5de00d05988d7c0877eaa15a","JN_14",1,20,28,0,2.511999846
"1536","5de00d05988d7c0877eaa15a","JN_14",2,4,1,0,1.816999912
"1537","5de00d05988d7c0877eaa15a","JN_14",3,6,29,1,1.789999962
"1538","5de00d05988d7c0877eaa15a","JN_14",4,20,35,0,1.878999949
"1539","5de00d05988d7c0877eaa15a","JN_14",5,6,26,1,3.065999985
"1540","5de00d05988d7c0877eaa15a","JN_14",6,20,5,1,2.053999901
"1541","5de00d05988d7c0877eaa15a","JN_14",7,20,14,1,2.258999825
"1542","5de00d05988d7c0877eaa15a","JN_14",8,1,21,1,1.776999712
"1543","5de00d05988d7c0877eaa15a","JN_14",9,1,12,1,2.208999872
"1544","5de00d05988d7c0877eaa15a","JN_14",11,4,19,0,3.019000053
"1545","5de00d05988d7c0877eaa15a","JN_14",12,3,5,1,2.30099988
"1546","5de00d05988d7c0877eaa15a","JN_14",13,6,40,0,2.182999849
"1547","5de00d05988d7c0877eaa15a","JN_14",14,6,1,0,1.791999817
"1548","5de00d05988d7c0877eaa15a","JN_14",15,20,23,1,2.814999819
"1549","5de00d05988d7c0877eaa15a","JN_14",16,2,25,1,1.927000046
"1550","5de00d05988d7c0877eaa15a","JN_14",17,4,5,0,2.718999863
"1551","5de00d05988d7c0877eaa15a","JN_14",18,3,2,0,1.569999933
"1552","5de00d05988d7c0877eaa15a","JN_14",19,20,1,1,1.592999935
"1553","5de00d05988d7c0877eaa15a","JN_14",20,1,15,1,1.970000029
"1554","5de00d05988d7c0877eaa15a","JN_14",22,2,1,1,1.576999903
"1555","5de00d05988d7c0877eaa15a","JN_14",23,6,17,1,1.778000116
"1556","5de00d05988d7c0877eaa15a","JN_14",24,6,31,0,1.801999807
"1557","5de00d05988d7c0877eaa15a","JN_14",25,1,5,1,1.696999788
"1558","5de00d05988d7c0877eaa15a","JN_14",26,3,23,1,1.76699996
"1559","5de00d05988d7c0877eaa15a","JN_14",27,6,37,1,1.836999893
"1560","5de00d05988d7c0877eaa15a","JN_14",28,10,1,1,2.645999908
"1561","5de00d05988d7c0877eaa15a","JN_14",29,20,29,1,1.777999878
"1562","5de00d05988d7c0877eaa15a","JN_14",30,1,2,1,1.856999874
"1563","5de00d05988d7c0877eaa15a","JN_14",31,4,22,1,2.049999952
"1564","5de00d05988d7c0877eaa15a","JN_14",32,1,5,1,1.739000082
"1565","5de00d05988d7c0877eaa15a","JN_14",33,2,3,1,1.82799983
"1566","5de00d05988d7c0877eaa15a","JN_14",34,6,28,1,1.748999834
"1567","5de00d05988d7c0877eaa15a","JN_14",35,2,24,1,2.083999872
"1568","5de00d05988d7c0877eaa15a","JN_14",36,20,31,1,1.541999817
"1569","5de00d05988d7c0877eaa15a","JN_14",37,20,4,1,1.75999999
"1570","5de00d05988d7c0877eaa15a","JN_14",38,3,3,1,2.186999798
"1571","5de00d05988d7c0877eaa15a","JN_14",39,2,3,1,2.01699996
"1572","5de00d05988d7c0877eaa15a","JN_14",40,20,17,1,2.829999924
