"","prolificID","participant","trial","distance","stimNumber","response","RT"
"1","5b6f330a4b924d0001943d83","JN_1",9,1,26,1,1.61400032
"2","5b6f330a4b924d0001943d83","JN_1",12,1,39,1,2.378000259
"3","5b6f330a4b924d0001943d83","JN_1",69,1,8,1,4.317000151
"4","5b6f330a4b924d0001943d83","JN_1",85,1,5,1,0.664999962
"5","5b6f330a4b924d0001943d83","JN_1",86,1,13,1,1.220000267
"6","5b6f330a4b924d0001943d83","JN_1",107,1,4,1,3.277000189
"7","5b6f330a4b924d0001943d83","JN_1",109,1,28,1,1.399000168
"8","5b6f330a4b924d0001943d83","JN_1",111,1,38,1,2.370000124
"9","5b6f330a4b924d0001943d83","JN_1",126,1,29,1,1.707000256
"10","5b6f330a4b924d0001943d83","JN_1",131,1,19,1,1.796000242
"11","5b6f330a4b924d0001943d83","JN_1",136,1,6,1,3.700000286
"12","5b6f330a4b924d0001943d83","JN_1",152,1,18,1,1.531000137
"13","5b6f330a4b924d0001943d83","JN_1",153,1,25,1,2.587000132
"14","5b6f330a4b924d0001943d83","JN_1",194,1,37,1,5.351000071
"15","5b6f330a4b924d0001943d83","JN_1",221,1,5,1,2.068000317
"16","5b6f330a4b924d0001943d83","JN_1",227,1,20,1,6.832000017
"17","5b6f330a4b924d0001943d83","JN_1",228,1,2,1,1.971000195
"18","5b6f330a4b924d0001943d83","JN_1",230,1,14,1,4.604000092
"19","5b6f330a4b924d0001943d83","JN_1",232,1,7,1,4.679000378
"20","5b6f330a4b924d0001943d83","JN_1",237,1,40,1,4.254000187
"21","5b6f330a4b924d0001943d83","JN_1",239,1,36,1,5.163000107
"22","5b6f330a4b924d0001943d83","JN_1",241,1,33,1,1.855000257
"23","5b6f330a4b924d0001943d83","JN_1",282,1,2,1,1.244000196
"24","5b6f330a4b924d0001943d83","JN_1",295,1,10,1,1.337000132
"25","5b6f330a4b924d0001943d83","JN_1",300,1,31,1,2.712000132
"26","5b6f330a4b924d0001943d83","JN_1",303,1,27,1,4.153000116
"27","5d30e6ef53416100199ad7bf","JN_10",1,1,35,1,2.24000001
"28","5d30e6ef53416100199ad7bf","JN_10",9,1,39,1,2.052999973
"29","5d30e6ef53416100199ad7bf","JN_10",15,1,29,1,1.870999813
"30","5d30e6ef53416100199ad7bf","JN_10",19,1,13,1,1.526000023
"31","5d30e6ef53416100199ad7bf","JN_10",40,1,6,1,3.485999823
"32","5d30e6ef53416100199ad7bf","JN_10",41,1,3,1,1.522000074
"33","5d30e6ef53416100199ad7bf","JN_10",42,1,20,1,1.601999998
"34","5d30e6ef53416100199ad7bf","JN_10",49,1,33,1,1.53399992
"35","5d30e6ef53416100199ad7bf","JN_10",56,1,3,1,1.654999971
"36","5d30e6ef53416100199ad7bf","JN_10",64,1,8,1,1.4599998
"37","5d30e6ef53416100199ad7bf","JN_10",65,1,4,1,2.921999931
"38","5d30e6ef53416100199ad7bf","JN_10",66,1,21,1,1.552999973
"39","5d30e6ef53416100199ad7bf","JN_10",83,1,12,1,1.585999966
"40","5d30e6ef53416100199ad7bf","JN_10",86,1,30,1,1.987999916
"41","5d30e6ef53416100199ad7bf","JN_10",93,1,10,1,1.438999891
"42","5d30e6ef53416100199ad7bf","JN_10",95,1,25,1,1.623999834
"43","5d30e6ef53416100199ad7bf","JN_10",112,1,18,1,2.752999783
"44","5d30e6ef53416100199ad7bf","JN_10",134,1,40,1,2.284999847
"45","5d30e6ef53416100199ad7bf","JN_10",157,1,19,1,1.687999964
"46","5d30e6ef53416100199ad7bf","JN_10",163,1,16,1,1.924000025
"47","5d30e6ef53416100199ad7bf","JN_10",182,1,15,1,1.427000046
"48","5d30e6ef53416100199ad7bf","JN_10",188,1,4,1,2.886999846
"49","5d30e6ef53416100199ad7bf","JN_10",193,1,17,1,1.690999985
"50","5d30e6ef53416100199ad7bf","JN_10",194,1,2,1,1.269000053
"51","5d30e6ef53416100199ad7bf","JN_10",196,1,1,1,1.684999943
"52","5d30e6ef53416100199ad7bf","JN_10",199,1,2,1,1.274999857
"53","5d30e6ef53416100199ad7bf","JN_10",215,1,7,1,3.45299983
"54","5d30e6ef53416100199ad7bf","JN_10",217,1,24,1,2.81799984
"55","5d30e6ef53416100199ad7bf","JN_10",225,1,22,1,4.098999977
"56","5d30e6ef53416100199ad7bf","JN_10",232,1,38,1,1.358999968
"57","5d30e6ef53416100199ad7bf","JN_10",247,1,5,1,1.35199976
"58","5d30e6ef53416100199ad7bf","JN_10",248,1,26,1,2.420000076
"59","5d30e6ef53416100199ad7bf","JN_10",256,1,9,1,3.954999924
"60","5d30e6ef53416100199ad7bf","JN_10",286,1,23,1,1.92599988
"61","5d30e6ef53416100199ad7bf","JN_10",289,1,32,1,1.968999863
"62","5d30e6ef53416100199ad7bf","JN_10",294,1,5,1,1.750999928
"63","5d30e6ef53416100199ad7bf","JN_10",295,1,11,1,1.569999933
"64","5d30e6ef53416100199ad7bf","JN_10",312,1,36,1,3.035000086
"65","5d401374a4f12200163db67a","JN_11",3,1,25,1,1.59100008
"66","5d401374a4f12200163db67a","JN_11",10,1,3,1,1.673000097
"67","5d401374a4f12200163db67a","JN_11",14,1,35,1,1.823000193
"68","5d401374a4f12200163db67a","JN_11",18,1,5,1,1.888000011
"69","5d401374a4f12200163db67a","JN_11",25,1,22,1,1.624000072
"70","5d401374a4f12200163db67a","JN_11",28,1,28,1,1.855999947
"71","5d401374a4f12200163db67a","JN_11",35,1,31,1,2.072000265
"72","5d401374a4f12200163db67a","JN_11",42,1,13,1,1.755000114
"73","5d401374a4f12200163db67a","JN_11",48,1,15,1,1.539000273
"74","5d401374a4f12200163db67a","JN_11",56,1,2,1,1.588999987
"75","5d401374a4f12200163db67a","JN_11",70,1,10,1,2.27300024
"76","5d401374a4f12200163db67a","JN_11",72,1,12,1,1.609000206
"77","5d401374a4f12200163db67a","JN_11",78,1,2,1,1.641000032
"78","5d401374a4f12200163db67a","JN_11",92,1,32,1,1.687000275
"79","5d401374a4f12200163db67a","JN_11",103,1,19,1,1.605000019
"80","5d401374a4f12200163db67a","JN_11",119,1,33,1,1.940000057
"81","5d401374a4f12200163db67a","JN_11",128,1,16,1,1.661000252
"82","5d401374a4f12200163db67a","JN_11",139,1,17,1,1.470000029
"83","5d401374a4f12200163db67a","JN_11",157,1,9,1,1.588000298
"84","5d401374a4f12200163db67a","JN_11",164,1,8,1,1.574000359
"85","5d401374a4f12200163db67a","JN_11",171,1,18,1,2.441000223
"86","5d401374a4f12200163db67a","JN_11",181,1,37,1,1.640000105
"87","5d401374a4f12200163db67a","JN_11",193,1,29,1,1.355000257
"88","5d401374a4f12200163db67a","JN_11",200,1,4,1,1.880000114
"89","5d401374a4f12200163db67a","JN_11",211,1,21,1,2.455000162
"90","5d401374a4f12200163db67a","JN_11",212,1,20,1,2.222000122
"91","5d401374a4f12200163db67a","JN_11",222,1,7,1,1.488000154
"92","5d401374a4f12200163db67a","JN_11",232,1,27,1,1.754000187
"93","5d401374a4f12200163db67a","JN_11",236,1,39,1,1.471000195
"94","5d401374a4f12200163db67a","JN_11",237,1,34,1,2.029000044
"95","5d401374a4f12200163db67a","JN_11",241,1,36,1,1.723000288
"96","5d401374a4f12200163db67a","JN_11",263,1,6,1,1.455000162
"97","5d401374a4f12200163db67a","JN_11",278,1,26,1,2.123000383
"98","5d401374a4f12200163db67a","JN_11",313,1,40,1,1.722000122
"99","5d401374a4f12200163db67a","JN_11",315,1,30,1,1.828000307
"100","5d4c507f2a080f0001912ed3","JN_12",15,1,32,1,1.578999758
"101","5d4c507f2a080f0001912ed3","JN_12",25,1,15,1,1.539999962
"102","5d4c507f2a080f0001912ed3","JN_12",29,1,18,1,1.371999979
"103","5d4c507f2a080f0001912ed3","JN_12",44,1,20,1,1.480999947
"104","5d4c507f2a080f0001912ed3","JN_12",52,1,2,1,1.637000084
"105","5d4c507f2a080f0001912ed3","JN_12",73,1,1,1,1.304999828
"106","5d4c507f2a080f0001912ed3","JN_12",78,1,3,1,1.819999933
"107","5d4c507f2a080f0001912ed3","JN_12",82,1,7,1,1.555000067
"108","5d4c507f2a080f0001912ed3","JN_12",83,1,13,1,1.56799984
"109","5d4c507f2a080f0001912ed3","JN_12",85,1,25,1,1.540999889
"110","5d4c507f2a080f0001912ed3","JN_12",92,1,34,1,1.479000092
"111","5d4c507f2a080f0001912ed3","JN_12",107,1,16,1,1.518999815
"112","5d4c507f2a080f0001912ed3","JN_12",113,1,26,1,1.608999968
"113","5d4c507f2a080f0001912ed3","JN_12",118,1,5,1,1.753000021
"114","5d4c507f2a080f0001912ed3","JN_12",121,1,28,1,1.845999956
"115","5d4c507f2a080f0001912ed3","JN_12",146,1,35,1,1.694999933
"116","5d4c507f2a080f0001912ed3","JN_12",152,1,3,1,1.555999994
"117","5d4c507f2a080f0001912ed3","JN_12",166,1,40,1,1.370999813
"118","5d4c507f2a080f0001912ed3","JN_12",169,1,4,1,1.390000105
"119","5d4c507f2a080f0001912ed3","JN_12",177,1,38,1,1.708999872
"120","5d4c507f2a080f0001912ed3","JN_12",183,1,33,1,1.61500001
"121","5d4c507f2a080f0001912ed3","JN_12",187,1,27,1,1.581999779
"122","5d4c507f2a080f0001912ed3","JN_12",200,1,2,1,1.406999826
"123","5d4c507f2a080f0001912ed3","JN_12",215,1,23,1,1.61899972
"124","5d4c507f2a080f0001912ed3","JN_12",220,1,6,1,1.594000101
"125","5d4c507f2a080f0001912ed3","JN_12",222,1,30,1,1.652999878
"126","5d4c507f2a080f0001912ed3","JN_12",231,1,39,1,1.838000059
"127","5d4c507f2a080f0001912ed3","JN_12",232,1,10,1,1.852999926
"128","5d4c507f2a080f0001912ed3","JN_12",243,1,22,1,1.527999878
"129","5d4c507f2a080f0001912ed3","JN_12",244,1,9,1,1.59100008
"130","5d4c507f2a080f0001912ed3","JN_12",260,1,8,1,1.519000053
"131","5d4c507f2a080f0001912ed3","JN_12",271,1,11,1,1.91899991
"132","5d4c507f2a080f0001912ed3","JN_12",277,1,4,1,1.507999897
"133","5d4c507f2a080f0001912ed3","JN_12",296,1,5,1,1.954999924
"134","5ddd81685be2df000bcd679a","JN_13",4,1,23,1,1.664000273
"135","5ddd81685be2df000bcd679a","JN_13",6,1,14,1,1.721000195
"136","5ddd81685be2df000bcd679a","JN_13",33,1,39,1,1.788000107
"137","5ddd81685be2df000bcd679a","JN_13",38,1,27,1,2.587000132
"138","5ddd81685be2df000bcd679a","JN_13",43,1,8,1,2.255000114
"139","5ddd81685be2df000bcd679a","JN_13",57,1,19,1,1.819000244
"140","5ddd81685be2df000bcd679a","JN_13",60,1,25,1,1.656000376
"141","5ddd81685be2df000bcd679a","JN_13",66,1,31,1,1.77300024
"142","5ddd81685be2df000bcd679a","JN_13",75,1,3,1,1.788000107
"143","5ddd81685be2df000bcd679a","JN_13",78,1,4,1,1.674000025
"144","5ddd81685be2df000bcd679a","JN_13",105,1,1,1,2.411000252
"145","5ddd81685be2df000bcd679a","JN_13",122,1,12,1,2.119000196
"146","5ddd81685be2df000bcd679a","JN_13",126,1,37,1,2.726000071
"147","5ddd81685be2df000bcd679a","JN_13",127,1,28,1,1.877000093
"148","5ddd81685be2df000bcd679a","JN_13",132,1,17,1,2.809000254
"149","5ddd81685be2df000bcd679a","JN_13",137,1,34,1,1.680000067
"150","5ddd81685be2df000bcd679a","JN_13",139,1,6,1,2.075000048
"151","5ddd81685be2df000bcd679a","JN_13",143,1,1,1,1.892000198
"152","5ddd81685be2df000bcd679a","JN_13",150,1,40,1,1.740000248
"153","5ddd81685be2df000bcd679a","JN_13",187,1,9,1,2.060000181
"154","5ddd81685be2df000bcd679a","JN_13",201,1,7,1,2.27699995
"155","5ddd81685be2df000bcd679a","JN_13",212,1,2,1,3.805000067
"156","5ddd81685be2df000bcd679a","JN_13",220,1,29,1,1.853000164
"157","5ddd81685be2df000bcd679a","JN_13",227,1,13,1,1.736000061
"158","5ddd81685be2df000bcd679a","JN_13",238,1,30,1,3.010000229
"159","5ddd81685be2df000bcd679a","JN_13",252,1,2,1,1.974000216
"160","5ddd81685be2df000bcd679a","JN_13",261,1,33,1,3.012000084
"161","5ddd81685be2df000bcd679a","JN_13",264,1,26,1,1.880000114
"162","5ddd81685be2df000bcd679a","JN_13",265,1,10,1,1.603000164
"163","5ddd81685be2df000bcd679a","JN_13",280,1,5,1,1.45600009
"164","5ddd81685be2df000bcd679a","JN_13",290,1,4,1,2.774000168
"165","5ddd81685be2df000bcd679a","JN_13",295,1,5,1,2.582000256
"166","5ddd81685be2df000bcd679a","JN_13",308,1,22,1,1.798000097
"167","5de00d05988d7c0877eaa15a","JN_14",8,1,21,1,1.776999712
"168","5de00d05988d7c0877eaa15a","JN_14",9,1,12,1,2.208999872
"169","5de00d05988d7c0877eaa15a","JN_14",20,1,15,1,1.970000029
"170","5de00d05988d7c0877eaa15a","JN_14",25,1,5,1,1.696999788
"171","5de00d05988d7c0877eaa15a","JN_14",30,1,2,1,1.856999874
"172","5de00d05988d7c0877eaa15a","JN_14",32,1,5,1,1.739000082
"173","5de00d05988d7c0877eaa15a","JN_14",47,1,20,1,1.97300005
"174","5de00d05988d7c0877eaa15a","JN_14",61,1,32,1,0.463999987
"175","5de00d05988d7c0877eaa15a","JN_14",68,1,30,1,1.768000126
"176","5de00d05988d7c0877eaa15a","JN_14",88,1,9,1,2.850999832
"177","5de00d05988d7c0877eaa15a","JN_14",90,1,35,1,2.468999863
"178","5de00d05988d7c0877eaa15a","JN_14",102,1,16,1,1.393999815
"179","5de00d05988d7c0877eaa15a","JN_14",104,1,25,1,2.284999847
"180","5de00d05988d7c0877eaa15a","JN_14",105,1,4,1,2.114000082
"181","5de00d05988d7c0877eaa15a","JN_14",115,1,40,1,2.110999823
"182","5de00d05988d7c0877eaa15a","JN_14",123,1,3,1,3.032999754
"183","5de00d05988d7c0877eaa15a","JN_14",131,1,19,1,2.426999807
"184","5de00d05988d7c0877eaa15a","JN_14",136,1,33,1,2.749999762
"185","5de00d05988d7c0877eaa15a","JN_14",141,1,23,1,2.415999889
"186","5de00d05988d7c0877eaa15a","JN_14",154,1,1,1,2.052000046
"187","5de00d05988d7c0877eaa15a","JN_14",160,1,8,1,1.68599987
"188","5de00d05988d7c0877eaa15a","JN_14",166,1,2,1,2.347000122
"189","5de00d05988d7c0877eaa15a","JN_14",167,1,4,1,2.29399991
"190","5de00d05988d7c0877eaa15a","JN_14",170,1,3,1,3.06799984
"191","5de00d05988d7c0877eaa15a","JN_14",185,1,14,1,1.762999773
"192","5de00d05988d7c0877eaa15a","JN_14",203,1,27,1,1.860000134
"193","5de00d05988d7c0877eaa15a","JN_14",205,1,10,1,1.589999914
"194","5de00d05988d7c0877eaa15a","JN_14",206,1,26,1,1.917999983
"195","5de00d05988d7c0877eaa15a","JN_14",229,1,18,1,1.730999947
"196","5de00d05988d7c0877eaa15a","JN_14",238,1,29,1,0.875
"197","5de00d05988d7c0877eaa15a","JN_14",240,1,24,1,0.360999823
"198","5de00d05988d7c0877eaa15a","JN_14",245,1,22,1,0.589999914
"199","5de00d05988d7c0877eaa15a","JN_14",250,1,36,1,1.42599988
"200","5de00d05988d7c0877eaa15a","JN_14",251,1,31,1,1.667999983
"201","5de00d05988d7c0877eaa15a","JN_14",255,1,1,1,1.263000011
"202","5de00d05988d7c0877eaa15a","JN_14",259,1,39,1,1.470999956
"203","5de00d05988d7c0877eaa15a","JN_14",298,1,11,1,1.622999907
"204","5de00d05988d7c0877eaa15a","JN_14",307,1,38,1,1.81400013
"205","5de00d05988d7c0877eaa15a","JN_14",311,1,17,1,1.553999901
"206","5de00d05988d7c0877eaa15a","JN_14",315,1,7,1,1.397999763
"207","5e5270a44b7e8c2806cdc072","JN_15",6,1,18,1,1.976999998
"208","5e5270a44b7e8c2806cdc072","JN_15",8,1,4,1,2.174999952
"209","5e5270a44b7e8c2806cdc072","JN_15",10,1,2,1,1.66899991
"210","5e5270a44b7e8c2806cdc072","JN_15",12,1,5,1,2.006999731
"211","5e5270a44b7e8c2806cdc072","JN_15",14,1,28,1,1.585999966
"212","5e5270a44b7e8c2806cdc072","JN_15",23,1,26,1,1.732999802
"213","5e5270a44b7e8c2806cdc072","JN_15",86,1,31,1,2.217999935
"214","5e5270a44b7e8c2806cdc072","JN_15",94,1,1,1,1.240999937
"215","5e5270a44b7e8c2806cdc072","JN_15",106,1,24,1,1.517999887
"216","5e5270a44b7e8c2806cdc072","JN_15",116,1,3,1,1.984999895
"217","5e5270a44b7e8c2806cdc072","JN_15",136,1,4,1,2.201999903
"218","5e5270a44b7e8c2806cdc072","JN_15",167,1,2,1,4.769999981
"219","5e5270a44b7e8c2806cdc072","JN_15",185,1,34,1,2.687999964
"220","5e5270a44b7e8c2806cdc072","JN_15",205,1,15,1,3.21999979
"221","5e5270a44b7e8c2806cdc072","JN_15",206,1,11,1,1.80099988
"222","5e5270a44b7e8c2806cdc072","JN_15",238,1,21,1,1.901000023
"223","5e5270a44b7e8c2806cdc072","JN_15",242,1,12,1,1.885999918
"224","5e5270a44b7e8c2806cdc072","JN_15",245,1,25,1,3.559999943
"225","5e5270a44b7e8c2806cdc072","JN_15",247,1,37,1,3.252000093
"226","5e5270a44b7e8c2806cdc072","JN_15",254,1,1,1,0.467999935
"227","5e5270a44b7e8c2806cdc072","JN_15",265,1,8,1,1.812000036
"228","5e5270a44b7e8c2806cdc072","JN_15",270,1,9,1,1.654000044
"229","5e5270a44b7e8c2806cdc072","JN_15",276,1,7,1,1.388000011
"230","5e5270a44b7e8c2806cdc072","JN_15",288,1,23,1,1.144999743
"231","5e5270a44b7e8c2806cdc072","JN_15",294,1,14,1,0.91899991
"232","5e6f8c5f076d2c5432918e19","JN_16",11,1,39,1,2.402000189
"233","5e6f8c5f076d2c5432918e19","JN_16",16,1,23,1,2.291000128
"234","5e6f8c5f076d2c5432918e19","JN_16",17,1,9,1,1.908000231
"235","5e6f8c5f076d2c5432918e19","JN_16",19,1,12,1,3.409000158
"236","5e6f8c5f076d2c5432918e19","JN_16",27,1,27,1,1.975000143
"237","5e6f8c5f076d2c5432918e19","JN_16",42,1,4,1,2.624000072
"238","5e6f8c5f076d2c5432918e19","JN_16",53,1,36,1,2.697000265
"239","5e6f8c5f076d2c5432918e19","JN_16",68,1,6,1,1.57400012
"240","5e6f8c5f076d2c5432918e19","JN_16",71,1,17,1,1.806000233
"241","5e6f8c5f076d2c5432918e19","JN_16",76,1,35,1,1.926000118
"242","5e6f8c5f076d2c5432918e19","JN_16",83,1,13,1,2.015000105
"243","5e6f8c5f076d2c5432918e19","JN_16",84,1,15,1,2.25999999
"244","5e6f8c5f076d2c5432918e19","JN_16",86,1,2,1,1.844000101
"245","5e6f8c5f076d2c5432918e19","JN_16",104,1,2,1,1.656000137
"246","5e6f8c5f076d2c5432918e19","JN_16",109,1,32,1,2.306000233
"247","5e6f8c5f076d2c5432918e19","JN_16",113,1,19,1,2.585000038
"248","5e6f8c5f076d2c5432918e19","JN_16",123,1,18,1,1.589000225
"249","5e6f8c5f076d2c5432918e19","JN_16",132,1,30,1,1.451000214
"250","5e6f8c5f076d2c5432918e19","JN_16",158,1,3,1,1.61500001
"251","5e6f8c5f076d2c5432918e19","JN_16",165,1,5,1,3.001000166
"252","5e6f8c5f076d2c5432918e19","JN_16",166,1,8,1,1.758000135
"253","5e6f8c5f076d2c5432918e19","JN_16",168,1,22,1,3.453000069
"254","5e6f8c5f076d2c5432918e19","JN_16",176,1,25,1,2.35800004
"255","5e6f8c5f076d2c5432918e19","JN_16",179,1,40,1,2.159000158
"256","5e6f8c5f076d2c5432918e19","JN_16",195,1,16,1,1.960000277
"257","5e6f8c5f076d2c5432918e19","JN_16",215,1,7,1,3.401000023
"258","5e6f8c5f076d2c5432918e19","JN_16",233,1,26,1,4.874000072
"259","5e6f8c5f076d2c5432918e19","JN_16",250,1,1,1,2.148000002
"260","5e6f8c5f076d2c5432918e19","JN_16",252,1,38,1,1.575000048
"261","5e6f8c5f076d2c5432918e19","JN_16",261,1,21,1,1.406000137
"262","5e6f8c5f076d2c5432918e19","JN_16",274,1,33,1,2.173000097
"263","5e6f8c5f076d2c5432918e19","JN_16",301,1,20,1,1.70600009
"264","5e6f8c5f076d2c5432918e19","JN_16",307,1,10,1,1.515000105
"265","5e7f7bbf0e60756485a48375","JN_17",3,1,9,1,1.68900013
"266","5e7f7bbf0e60756485a48375","JN_17",5,1,30,1,1.815999985
"267","5e7f7bbf0e60756485a48375","JN_17",10,1,25,1,1.446000099
"268","5e7f7bbf0e60756485a48375","JN_17",29,1,19,1,1.962999821
"269","5e7f7bbf0e60756485a48375","JN_17",32,1,17,1,1.516000032
"270","5e7f7bbf0e60756485a48375","JN_17",38,1,32,1,1.586000204
"271","5e7f7bbf0e60756485a48375","JN_17",40,1,26,1,1.728000164
"272","5e7f7bbf0e60756485a48375","JN_17",42,1,18,1,1.557999849
"273","5e7f7bbf0e60756485a48375","JN_17",44,1,13,1,1.677000046
"274","5e7f7bbf0e60756485a48375","JN_17",45,1,5,1,1.415999889
"275","5e7f7bbf0e60756485a48375","JN_17",54,1,22,1,1.420000076
"276","5e7f7bbf0e60756485a48375","JN_17",57,1,3,1,1.572999954
"277","5e7f7bbf0e60756485a48375","JN_17",64,1,21,1,1.453000069
"278","5e7f7bbf0e60756485a48375","JN_17",74,1,1,1,1.710999966
"279","5e7f7bbf0e60756485a48375","JN_17",96,1,10,1,1.786999941
"280","5e7f7bbf0e60756485a48375","JN_17",119,1,20,1,1.528000116
"281","5e7f7bbf0e60756485a48375","JN_17",126,1,8,1,1.634000063
"282","5e7f7bbf0e60756485a48375","JN_17",127,1,16,1,1.54399991
"283","5e7f7bbf0e60756485a48375","JN_17",128,1,40,1,1.557999849
"284","5e7f7bbf0e60756485a48375","JN_17",131,1,34,1,1.662999868
"285","5e7f7bbf0e60756485a48375","JN_17",142,1,1,1,1.588999987
"286","5e7f7bbf0e60756485a48375","JN_17",151,1,28,1,1.384000063
"287","5e7f7bbf0e60756485a48375","JN_17",154,1,35,1,1.299999952
"288","5e7f7bbf0e60756485a48375","JN_17",159,1,2,1,1.549999952
"289","5e7f7bbf0e60756485a48375","JN_17",164,1,15,1,1.532000065
"290","5e7f7bbf0e60756485a48375","JN_17",187,1,36,1,1.537000179
"291","5e7f7bbf0e60756485a48375","JN_17",191,1,37,1,1.380000114
"292","5e7f7bbf0e60756485a48375","JN_17",222,1,14,1,1.468999863
"293","5e7f7bbf0e60756485a48375","JN_17",226,1,3,1,1.431999922
"294","5e7f7bbf0e60756485a48375","JN_17",227,1,12,1,1.562000036
"295","5e7f7bbf0e60756485a48375","JN_17",228,1,23,1,1.627000093
"296","5e7f7bbf0e60756485a48375","JN_17",235,1,6,1,1.523000002
"297","5e7f7bbf0e60756485a48375","JN_17",273,1,7,1,1.5
"298","5e7f7bbf0e60756485a48375","JN_17",279,1,2,1,1.390999794
"299","5e7f7bbf0e60756485a48375","JN_17",288,1,29,1,1.414999962
"300","5e7f7bbf0e60756485a48375","JN_17",295,1,33,1,1.306999922
"301","5e7f7bbf0e60756485a48375","JN_17",302,1,4,1,1.530999899
"302","5e820c95a7dfb990e185a7c8","JN_18",13,1,9,1,0.785000086
"303","5e820c95a7dfb990e185a7c8","JN_18",16,1,8,1,0.50600028
"304","5e820c95a7dfb990e185a7c8","JN_18",26,1,3,1,1.18200016
"305","5e820c95a7dfb990e185a7c8","JN_18",45,1,13,1,1.292000055
"306","5e820c95a7dfb990e185a7c8","JN_18",48,1,5,1,1.88499999
"307","5e820c95a7dfb990e185a7c8","JN_18",51,1,22,1,1.446000099
"308","5e820c95a7dfb990e185a7c8","JN_18",55,1,20,1,1.435000181
"309","5e820c95a7dfb990e185a7c8","JN_18",78,1,5,1,1.463999987
"310","5e820c95a7dfb990e185a7c8","JN_18",82,1,12,1,1.391000032
"311","5e820c95a7dfb990e185a7c8","JN_18",87,1,4,1,1.168000221
"312","5e820c95a7dfb990e185a7c8","JN_18",88,1,2,1,1.368000269
"313","5e820c95a7dfb990e185a7c8","JN_18",103,1,23,1,1.186000347
"314","5e820c95a7dfb990e185a7c8","JN_18",111,1,21,1,1.444000006
"315","5e820c95a7dfb990e185a7c8","JN_18",121,1,33,1,1.709000349
"316","5e820c95a7dfb990e185a7c8","JN_18",123,1,4,1,1.462000132
"317","5e820c95a7dfb990e185a7c8","JN_18",145,1,10,1,1.741000175
"318","5e820c95a7dfb990e185a7c8","JN_18",146,1,38,1,2.081000328
"319","5e820c95a7dfb990e185a7c8","JN_18",151,1,11,1,3.855000257
"320","5e820c95a7dfb990e185a7c8","JN_18",159,1,34,1,1.312000275
"321","5e820c95a7dfb990e185a7c8","JN_18",161,1,24,1,1.772000074
"322","5e820c95a7dfb990e185a7c8","JN_18",162,1,31,1,1.462000132
"323","5e820c95a7dfb990e185a7c8","JN_18",174,1,2,1,1.468000174
"324","5e820c95a7dfb990e185a7c8","JN_18",186,1,29,1,1.830000162
"325","5e820c95a7dfb990e185a7c8","JN_18",193,1,32,1,1.286000013
"326","5e820c95a7dfb990e185a7c8","JN_18",195,1,27,1,0.843000174
"327","5e820c95a7dfb990e185a7c8","JN_18",196,1,40,1,1.305000067
"328","5e820c95a7dfb990e185a7c8","JN_18",207,1,36,1,1.438000202
"329","5e820c95a7dfb990e185a7c8","JN_18",211,1,6,1,1.027000189
"330","5e820c95a7dfb990e185a7c8","JN_18",218,1,16,1,1.512000322
"331","5e820c95a7dfb990e185a7c8","JN_18",224,1,1,1,1.505000353
"332","5e820c95a7dfb990e185a7c8","JN_18",227,1,19,1,1.57400012
"333","5e820c95a7dfb990e185a7c8","JN_18",236,1,30,1,1.293000221
"334","5e820c95a7dfb990e185a7c8","JN_18",238,1,26,1,1.451000214
"335","5e820c95a7dfb990e185a7c8","JN_18",255,1,25,1,0.869000196
"336","5e820c95a7dfb990e185a7c8","JN_18",294,1,18,1,2.516000271
"337","5e8740bce698c93829bd9217","JN_19",6,1,14,1,2.128000021
"338","5e8740bce698c93829bd9217","JN_19",7,1,34,1,2.260999918
"339","5e8740bce698c93829bd9217","JN_19",13,1,18,1,1.923000097
"340","5e8740bce698c93829bd9217","JN_19",14,1,31,1,1.527999878
"341","5e8740bce698c93829bd9217","JN_19",20,1,32,1,1.690000057
"342","5e8740bce698c93829bd9217","JN_19",22,1,3,1,2.18900013
"343","5e8740bce698c93829bd9217","JN_19",65,1,19,1,1.422999859
"344","5e8740bce698c93829bd9217","JN_19",67,1,25,1,1.559999943
"345","5e8740bce698c93829bd9217","JN_19",69,1,23,1,1.411999941
"346","5e8740bce698c93829bd9217","JN_19",71,1,28,1,1.594000101
"347","5e8740bce698c93829bd9217","JN_19",76,1,6,1,1.373000145
"348","5e8740bce698c93829bd9217","JN_19",81,1,8,1,1.559000015
"349","5e8740bce698c93829bd9217","JN_19",116,1,2,1,1.588999987
"350","5e8740bce698c93829bd9217","JN_19",118,1,27,1,1.576999903
"351","5e8740bce698c93829bd9217","JN_19",133,1,20,1,1.628999949
"352","5e8740bce698c93829bd9217","JN_19",135,1,33,1,1.388999939
"353","5e8740bce698c93829bd9217","JN_19",141,1,9,1,1.407000065
"354","5e8740bce698c93829bd9217","JN_19",142,1,4,1,1.83100009
"355","5e8740bce698c93829bd9217","JN_19",145,1,30,1,1.509000063
"356","5e8740bce698c93829bd9217","JN_19",154,1,2,1,1.382000208
"357","5e8740bce698c93829bd9217","JN_19",184,1,35,1,1.539999962
"358","5e8740bce698c93829bd9217","JN_19",212,1,10,1,1.606999874
"359","5e8740bce698c93829bd9217","JN_19",235,1,26,1,1.273000002
"360","5e8740bce698c93829bd9217","JN_19",237,1,16,1,1.515000105
"361","5e8740bce698c93829bd9217","JN_19",250,1,17,1,1.440999985
"362","5e8740bce698c93829bd9217","JN_19",254,1,12,1,1.700000048
"363","5e8740bce698c93829bd9217","JN_19",273,1,21,1,1.911000013
"364","5e8740bce698c93829bd9217","JN_19",275,1,7,1,1.587999821
"365","5e8740bce698c93829bd9217","JN_19",276,1,37,1,1.72300005
"366","5e8740bce698c93829bd9217","JN_19",302,1,36,1,1.778000116
"367","5e8740bce698c93829bd9217","JN_19",303,1,22,1,1.641000032
"368","5b9980ceabb5590001b242ef","JN_2",1,1,3,1,1.854000092
"369","5b9980ceabb5590001b242ef","JN_2",9,1,23,1,1.32400012
"370","5b9980ceabb5590001b242ef","JN_2",10,1,39,1,1.309999943
"371","5b9980ceabb5590001b242ef","JN_2",11,1,19,1,1.278999805
"372","5b9980ceabb5590001b242ef","JN_2",12,1,34,1,1.40199995
"373","5b9980ceabb5590001b242ef","JN_2",13,1,35,1,1.290999889
"374","5b9980ceabb5590001b242ef","JN_2",23,1,3,1,1.407999754
"375","5b9980ceabb5590001b242ef","JN_2",27,1,24,1,3.707999945
"376","5b9980ceabb5590001b242ef","JN_2",36,1,20,1,1.407999992
"377","5b9980ceabb5590001b242ef","JN_2",42,1,12,1,1.591999769
"378","5b9980ceabb5590001b242ef","JN_2",49,1,11,1,1.356999874
"379","5b9980ceabb5590001b242ef","JN_2",50,1,1,1,1.338999748
"380","5b9980ceabb5590001b242ef","JN_2",63,1,4,1,1.450999975
"381","5b9980ceabb5590001b242ef","JN_2",65,1,40,1,1.590999842
"382","5b9980ceabb5590001b242ef","JN_2",66,1,1,1,1.394000053
"383","5b9980ceabb5590001b242ef","JN_2",68,1,38,1,1.808000088
"384","5b9980ceabb5590001b242ef","JN_2",71,1,26,1,1.305999994
"385","5b9980ceabb5590001b242ef","JN_2",76,1,21,1,1.838000059
"386","5b9980ceabb5590001b242ef","JN_2",80,1,5,1,1.282999992
"387","5b9980ceabb5590001b242ef","JN_2",85,1,28,1,2.22300005
"388","5b9980ceabb5590001b242ef","JN_2",86,1,10,1,1.284999847
"389","5b9980ceabb5590001b242ef","JN_2",87,1,22,1,2.174000025
"390","5b9980ceabb5590001b242ef","JN_2",103,1,5,1,1.260999918
"391","5b9980ceabb5590001b242ef","JN_2",117,1,2,1,1.054999828
"392","5b9980ceabb5590001b242ef","JN_2",120,1,25,1,1.353999853
"393","5b9980ceabb5590001b242ef","JN_2",133,1,27,1,1.287999868
"394","5b9980ceabb5590001b242ef","JN_2",140,1,36,1,3.384999752
"395","5b9980ceabb5590001b242ef","JN_2",148,1,29,1,2.473999977
"396","5b9980ceabb5590001b242ef","JN_2",153,1,9,1,1.286000013
"397","5b9980ceabb5590001b242ef","JN_2",170,1,2,1,1.22699976
"398","5b9980ceabb5590001b242ef","JN_2",171,1,13,1,1.302000046
"399","5b9980ceabb5590001b242ef","JN_2",182,1,33,1,1.307999849
"400","5b9980ceabb5590001b242ef","JN_2",190,1,4,1,1.391000032
"401","5b9980ceabb5590001b242ef","JN_2",204,1,17,1,1.424000025
"402","5b9980ceabb5590001b242ef","JN_2",233,1,16,1,1.369999886
"403","5b9980ceabb5590001b242ef","JN_2",245,1,30,1,1.256999969
"404","5b9980ceabb5590001b242ef","JN_2",247,1,31,1,1.45600009
"405","5b9980ceabb5590001b242ef","JN_2",283,1,6,1,1.273000002
"406","5b9980ceabb5590001b242ef","JN_2",285,1,7,1,1.355999947
"407","5b9980ceabb5590001b242ef","JN_2",300,1,15,1,1.415999889
"408","5b9980ceabb5590001b242ef","JN_2",308,1,18,1,1.370000124
"409","5b9980ceabb5590001b242ef","JN_2",312,1,37,1,1.460000038
"410","5e88dc2ac740a757895b4472","JN_20",8,1,35,1,4.57400012
"411","5e88dc2ac740a757895b4472","JN_20",13,1,22,1,2.016000032
"412","5e88dc2ac740a757895b4472","JN_20",47,1,13,1,6.148999929
"413","5e88dc2ac740a757895b4472","JN_20",53,1,2,1,1.032999992
"414","5e88dc2ac740a757895b4472","JN_20",55,1,5,1,1.274000168
"415","5e88dc2ac740a757895b4472","JN_20",64,1,28,1,1.687000036
"416","5e88dc2ac740a757895b4472","JN_20",65,1,3,1,0.967000008
"417","5e88dc2ac740a757895b4472","JN_20",70,1,38,1,1.815999985
"418","5e88dc2ac740a757895b4472","JN_20",76,1,1,1,1.748999834
"419","5e88dc2ac740a757895b4472","JN_20",84,1,31,1,5.429999828
"420","5e88dc2ac740a757895b4472","JN_20",93,1,8,1,3.065999985
"421","5e88dc2ac740a757895b4472","JN_20",124,1,15,1,1.685000181
"422","5e88dc2ac740a757895b4472","JN_20",126,1,5,1,1.167000055
"423","5e88dc2ac740a757895b4472","JN_20",127,1,24,1,0.842999935
"424","5e88dc2ac740a757895b4472","JN_20",134,1,10,1,1.782999992
"425","5e88dc2ac740a757895b4472","JN_20",136,1,34,1,1.700000048
"426","5e88dc2ac740a757895b4472","JN_20",148,1,14,1,5.381000042
"427","5e88dc2ac740a757895b4472","JN_20",150,1,21,1,2.761000156
"428","5e88dc2ac740a757895b4472","JN_20",168,1,29,1,3.414000034
"429","5e88dc2ac740a757895b4472","JN_20",175,1,19,1,3.486000061
"430","5e88dc2ac740a757895b4472","JN_20",179,1,2,1,4.414000034
"431","5e88dc2ac740a757895b4472","JN_20",185,1,25,1,5.126000166
"432","5e88dc2ac740a757895b4472","JN_20",210,1,23,1,3.34800005
"433","5e88dc2ac740a757895b4472","JN_20",216,1,20,1,2.416000128
"434","5e88dc2ac740a757895b4472","JN_20",230,1,18,1,2.542000055
"435","5e88dc2ac740a757895b4472","JN_20",232,1,37,1,7.54399991
"436","5e88dc2ac740a757895b4472","JN_20",237,1,17,1,1.05700016
"437","5e88dc2ac740a757895b4472","JN_20",241,1,32,1,3.985000134
"438","5e88dc2ac740a757895b4472","JN_20",250,1,26,1,4.563999891
"439","5e88dc2ac740a757895b4472","JN_20",290,1,6,1,1.450000048
"440","5e88dc2ac740a757895b4472","JN_20",297,1,36,1,1.75
"441","5e88dc2ac740a757895b4472","JN_20",315,1,40,1,1.242000103
"442","5e8f8a0916c52a0ca559c590","JN_21",1,1,15,1,1.567000151
"443","5e8f8a0916c52a0ca559c590","JN_21",16,1,10,1,1.586999893
"444","5e8f8a0916c52a0ca559c590","JN_21",44,1,21,1,1.500999928
"445","5e8f8a0916c52a0ca559c590","JN_21",48,1,4,1,1.272000074
"446","5e8f8a0916c52a0ca559c590","JN_21",49,1,2,1,1.393999815
"447","5e8f8a0916c52a0ca559c590","JN_21",55,1,25,1,1.453000069
"448","5e8f8a0916c52a0ca559c590","JN_21",69,1,32,1,1.307999849
"449","5e8f8a0916c52a0ca559c590","JN_21",73,1,22,1,1.255000114
"450","5e8f8a0916c52a0ca559c590","JN_21",76,1,24,1,1.434000015
"451","5e8f8a0916c52a0ca559c590","JN_21",98,1,5,1,1.18599987
"452","5e8f8a0916c52a0ca559c590","JN_21",118,1,23,1,1.545000076
"453","5e8f8a0916c52a0ca559c590","JN_21",122,1,1,1,1.907000065
"454","5e8f8a0916c52a0ca559c590","JN_21",125,1,36,1,1.250999928
"455","5e8f8a0916c52a0ca559c590","JN_21",129,1,39,1,1.24000001
"456","5e8f8a0916c52a0ca559c590","JN_21",133,1,26,1,1.250999928
"457","5e8f8a0916c52a0ca559c590","JN_21",154,1,12,1,1.97300005
"458","5e8f8a0916c52a0ca559c590","JN_21",164,1,5,1,1.460999966
"459","5e8f8a0916c52a0ca559c590","JN_21",183,1,2,1,1.361000061
"460","5e8f8a0916c52a0ca559c590","JN_21",203,1,3,1,1.391000032
"461","5e8f8a0916c52a0ca559c590","JN_21",205,1,7,1,1.404000044
"462","5e8f8a0916c52a0ca559c590","JN_21",210,1,14,1,1.370999813
"463","5e8f8a0916c52a0ca559c590","JN_21",222,1,30,1,1.370999813
"464","5e8f8a0916c52a0ca559c590","JN_21",223,1,31,1,1.204999924
"465","5e8f8a0916c52a0ca559c590","JN_21",226,1,8,1,1.390000105
"466","5e8f8a0916c52a0ca559c590","JN_21",234,1,13,1,1.368999958
"467","5e8f8a0916c52a0ca559c590","JN_21",235,1,37,1,1.536000013
"468","5e8f8a0916c52a0ca559c590","JN_21",244,1,19,1,1.434999943
"469","5e8f8a0916c52a0ca559c590","JN_21",254,1,40,1,1.423999786
"470","5e8f8a0916c52a0ca559c590","JN_21",266,1,16,1,1.40199995
"471","5e8f8a0916c52a0ca559c590","JN_21",270,1,35,1,1.457999945
"472","5e8f8a0916c52a0ca559c590","JN_21",280,1,9,1,1.517999887
"473","5e8f8a0916c52a0ca559c590","JN_21",291,1,3,1,1.201999903
"474","5e8f8a0916c52a0ca559c590","JN_21",292,1,20,1,1.371000051
"475","5e8f8a0916c52a0ca559c590","JN_21",293,1,6,1,1.329999924
"476","5e8f8a0916c52a0ca559c590","JN_21",305,1,18,1,1.379999876
"477","5e931ccd28ca2b00089b5666","JN_22",2,1,9,1,1.654999971
"478","5e931ccd28ca2b00089b5666","JN_22",7,1,5,1,2.228999853
"479","5e931ccd28ca2b00089b5666","JN_22",8,1,17,1,1.82799983
"480","5e931ccd28ca2b00089b5666","JN_22",20,1,1,1,2.761999846
"481","5e931ccd28ca2b00089b5666","JN_22",24,1,30,1,2.054999828
"482","5e931ccd28ca2b00089b5666","JN_22",31,1,29,1,1.826999903
"483","5e931ccd28ca2b00089b5666","JN_22",40,1,2,1,1.711999893
"484","5e931ccd28ca2b00089b5666","JN_22",42,1,34,1,2.407999992
"485","5e931ccd28ca2b00089b5666","JN_22",55,1,39,1,3.825000048
"486","5e931ccd28ca2b00089b5666","JN_22",58,1,4,1,1.220999956
"487","5e931ccd28ca2b00089b5666","JN_22",61,1,26,1,2.478999853
"488","5e931ccd28ca2b00089b5666","JN_22",70,1,4,1,1.392999887
"489","5e931ccd28ca2b00089b5666","JN_22",73,1,2,1,1.342000008
"490","5e931ccd28ca2b00089b5666","JN_22",74,1,35,1,0.681999922
"491","5e931ccd28ca2b00089b5666","JN_22",86,1,19,1,1.393999815
"492","5e931ccd28ca2b00089b5666","JN_22",96,1,13,1,1.975999832
"493","5e931ccd28ca2b00089b5666","JN_22",108,1,21,1,1.644999743
"494","5e931ccd28ca2b00089b5666","JN_22",111,1,5,1,1.709000111
"495","5e931ccd28ca2b00089b5666","JN_22",114,1,1,1,3.059000015
"496","5e931ccd28ca2b00089b5666","JN_22",123,1,15,1,1.657999754
"497","5e931ccd28ca2b00089b5666","JN_22",136,1,40,1,1.417000055
"498","5e931ccd28ca2b00089b5666","JN_22",140,1,18,1,1.371999979
"499","5e931ccd28ca2b00089b5666","JN_22",146,1,3,1,1.446000099
"500","5e931ccd28ca2b00089b5666","JN_22",149,1,8,1,1.2099998
"501","5e931ccd28ca2b00089b5666","JN_22",157,1,12,1,1.544999838
"502","5e931ccd28ca2b00089b5666","JN_22",158,1,32,1,2.676999807
"503","5e931ccd28ca2b00089b5666","JN_22",177,1,36,1,3.391000032
"504","5e931ccd28ca2b00089b5666","JN_22",187,1,33,1,0.835999966
"505","5e931ccd28ca2b00089b5666","JN_22",199,1,38,1,2.551999807
"506","5e931ccd28ca2b00089b5666","JN_22",219,1,24,1,2.626999855
"507","5e931ccd28ca2b00089b5666","JN_22",225,1,25,1,1.240999937
"508","5e931ccd28ca2b00089b5666","JN_22",230,1,31,1,1.059999943
"509","5e931ccd28ca2b00089b5666","JN_22",231,1,16,1,1.427999973
"510","5e931ccd28ca2b00089b5666","JN_22",235,1,10,1,3.010999918
"511","5e931ccd28ca2b00089b5666","JN_22",254,1,20,1,0.609999895
"512","5e931ccd28ca2b00089b5666","JN_22",272,1,27,1,1.358999968
"513","5e931ccd28ca2b00089b5666","JN_22",273,1,7,1,1.260999918
"514","5e931ccd28ca2b00089b5666","JN_22",291,1,6,1,0.431999922
"515","5e931ccd28ca2b00089b5666","JN_22",299,1,3,1,1.328000069
"516","5e931ccd28ca2b00089b5666","JN_22",302,1,11,1,0.372999907
"517","5e94b58fc7296a0a611f0492","JN_23",26,1,19,1,6.305000067
"518","5e94b58fc7296a0a611f0492","JN_23",27,1,2,1,5.471999884
"519","5e94b58fc7296a0a611f0492","JN_23",30,1,1,1,2.395999908
"520","5e94b58fc7296a0a611f0492","JN_23",70,1,12,1,2.458000183
"521","5e94b58fc7296a0a611f0492","JN_23",75,1,21,1,2.346999884
"522","5e94b58fc7296a0a611f0492","JN_23",77,1,20,1,2.374000072
"523","5e94b58fc7296a0a611f0492","JN_23",90,1,32,1,2.791000128
"524","5e94b58fc7296a0a611f0492","JN_23",102,1,36,1,2.875
"525","5e94b58fc7296a0a611f0492","JN_23",124,1,10,1,2.210999966
"526","5e94b58fc7296a0a611f0492","JN_23",160,1,7,1,1.743999958
"527","5e94b58fc7296a0a611f0492","JN_23",180,1,40,1,2.090000153
"528","5e94b58fc7296a0a611f0492","JN_23",185,1,16,1,1.760999918
"529","5e94b58fc7296a0a611f0492","JN_23",189,1,9,1,1.694000006
"530","5e94b58fc7296a0a611f0492","JN_23",195,1,33,1,2.013999939
"531","5e94b58fc7296a0a611f0492","JN_23",198,1,27,1,1.772000074
"532","5e94b58fc7296a0a611f0492","JN_23",199,1,26,1,3.078000069
"533","5e94b58fc7296a0a611f0492","JN_23",202,1,38,1,2.65199995
"534","5e94b58fc7296a0a611f0492","JN_23",209,1,28,1,1.236999989
"535","5e94b58fc7296a0a611f0492","JN_23",225,1,5,1,1.687999964
"536","5e94b58fc7296a0a611f0492","JN_23",236,1,4,1,1.931000233
"537","5e94b58fc7296a0a611f0492","JN_23",237,1,6,1,1.36500001
"538","5e94b58fc7296a0a611f0492","JN_23",266,1,39,1,1.520999908
"539","5e94b58fc7296a0a611f0492","JN_23",267,1,31,1,1.941999912
"540","5e94b58fc7296a0a611f0492","JN_23",281,1,5,1,2.069999933
"541","5ea0643f3e4263012b9d0c58","JN_25",28,1,13,1,1.842999935
"542","5ea0643f3e4263012b9d0c58","JN_25",34,1,3,1,1.488999844
"543","5ea0643f3e4263012b9d0c58","JN_25",40,1,25,1,1.006000042
"544","5ea0643f3e4263012b9d0c58","JN_25",48,1,12,1,1.227999926
"545","5ea0643f3e4263012b9d0c58","JN_25",52,1,40,1,1.360999823
"546","5ea0643f3e4263012b9d0c58","JN_25",58,1,4,1,1.27699995
"547","5ea0643f3e4263012b9d0c58","JN_25",75,1,30,1,1.368999958
"548","5ea0643f3e4263012b9d0c58","JN_25",81,1,5,1,1.307999849
"549","5ea0643f3e4263012b9d0c58","JN_25",84,1,29,1,1.305999994
"550","5ea0643f3e4263012b9d0c58","JN_25",87,1,22,1,1.196999788
"551","5ea0643f3e4263012b9d0c58","JN_25",88,1,6,1,1.118999958
"552","5ea0643f3e4263012b9d0c58","JN_25",122,1,17,1,1.202000141
"553","5ea0643f3e4263012b9d0c58","JN_25",129,1,19,1,1.328000069
"554","5ea0643f3e4263012b9d0c58","JN_25",142,1,35,1,1.237999916
"555","5ea0643f3e4263012b9d0c58","JN_25",144,1,32,1,1.311999798
"556","5ea0643f3e4263012b9d0c58","JN_25",151,1,18,1,1.221999884
"557","5ea0643f3e4263012b9d0c58","JN_25",157,1,5,1,1.260999918
"558","5ea0643f3e4263012b9d0c58","JN_25",180,1,16,1,1.247999907
"559","5ea0643f3e4263012b9d0c58","JN_25",189,1,8,1,1.208999872
"560","5ea0643f3e4263012b9d0c58","JN_25",194,1,15,1,1.34499979
"561","5ea0643f3e4263012b9d0c58","JN_25",204,1,11,1,2.003999949
"562","5ea0643f3e4263012b9d0c58","JN_25",207,1,26,1,1.42599988
"563","5ea0643f3e4263012b9d0c58","JN_25",231,1,10,1,1.177999973
"564","5ea0643f3e4263012b9d0c58","JN_25",232,1,1,1,1.912999868
"565","5ea0643f3e4263012b9d0c58","JN_25",233,1,14,1,1.355999947
"566","5ea0643f3e4263012b9d0c58","JN_25",240,1,36,1,1.55099988
"567","5ea0643f3e4263012b9d0c58","JN_25",247,1,9,1,1.660000086
"568","5ea0643f3e4263012b9d0c58","JN_25",266,1,38,1,1.894000053
"569","5ea0643f3e4263012b9d0c58","JN_25",273,1,33,1,1.128000021
"570","5ea0643f3e4263012b9d0c58","JN_25",284,1,28,1,1.590999842
"571","5ea0643f3e4263012b9d0c58","JN_25",306,1,7,1,1.491999865
"572","5ea0643f3e4263012b9d0c58","JN_25",310,1,23,1,1.17599988
"573","5ea1a8d76c7ccc05988dabf3","JN_26",2,1,18,1,1.646999836
"574","5ea1a8d76c7ccc05988dabf3","JN_26",6,1,11,1,1.496000051
"575","5ea1a8d76c7ccc05988dabf3","JN_26",11,1,19,1,1.460999966
"576","5ea1a8d76c7ccc05988dabf3","JN_26",29,1,22,1,1.688999891
"577","5ea1a8d76c7ccc05988dabf3","JN_26",32,1,2,1,2.123999834
"578","5ea1a8d76c7ccc05988dabf3","JN_26",33,1,23,1,1.922999859
"579","5ea1a8d76c7ccc05988dabf3","JN_26",44,1,36,1,1.401000023
"580","5ea1a8d76c7ccc05988dabf3","JN_26",58,1,13,1,2.237999916
"581","5ea1a8d76c7ccc05988dabf3","JN_26",61,1,40,1,2.254999876
"582","5ea1a8d76c7ccc05988dabf3","JN_26",64,1,32,1,2.422999859
"583","5ea1a8d76c7ccc05988dabf3","JN_26",68,1,39,1,2.36199975
"584","5ea1a8d76c7ccc05988dabf3","JN_26",76,1,30,1,1.519000053
"585","5ea1a8d76c7ccc05988dabf3","JN_26",81,1,26,1,1.672999859
"586","5ea1a8d76c7ccc05988dabf3","JN_26",82,1,35,1,1.484999895
"587","5ea1a8d76c7ccc05988dabf3","JN_26",90,1,25,1,2.089999914
"588","5ea1a8d76c7ccc05988dabf3","JN_26",91,1,38,1,3.111000061
"589","5ea1a8d76c7ccc05988dabf3","JN_26",95,1,6,1,1.350999832
"590","5ea1a8d76c7ccc05988dabf3","JN_26",96,1,5,1,1.769999981
"591","5ea1a8d76c7ccc05988dabf3","JN_26",104,1,33,1,3.101000071
"592","5ea1a8d76c7ccc05988dabf3","JN_26",105,1,14,1,2.759000063
"593","5ea1a8d76c7ccc05988dabf3","JN_26",112,1,2,1,1.371000051
"594","5ea1a8d76c7ccc05988dabf3","JN_26",114,1,29,1,2.433999777
"595","5ea1a8d76c7ccc05988dabf3","JN_26",123,1,3,1,2.983999968
"596","5ea1a8d76c7ccc05988dabf3","JN_26",128,1,9,1,2.243000031
"597","5ea1a8d76c7ccc05988dabf3","JN_26",135,1,37,1,2.076999903
"598","5ea1a8d76c7ccc05988dabf3","JN_26",138,1,7,1,1.342999935
"599","5ea1a8d76c7ccc05988dabf3","JN_26",140,1,4,1,2.040999889
"600","5ea1a8d76c7ccc05988dabf3","JN_26",164,1,20,1,2.733999968
"601","5ea1a8d76c7ccc05988dabf3","JN_26",165,1,3,1,1.684999943
"602","5ea1a8d76c7ccc05988dabf3","JN_26",178,1,1,1,2.597999811
"603","5ea1a8d76c7ccc05988dabf3","JN_26",184,1,4,1,3.579999924
"604","5ea1a8d76c7ccc05988dabf3","JN_26",192,1,16,1,3.082000017
"605","5ea1a8d76c7ccc05988dabf3","JN_26",197,1,31,1,2.394999981
"606","5ea1a8d76c7ccc05988dabf3","JN_26",212,1,17,1,1.717999935
"607","5ea1a8d76c7ccc05988dabf3","JN_26",213,1,5,1,2.034999847
"608","5ea1a8d76c7ccc05988dabf3","JN_26",218,1,21,1,1.724999905
"609","5ea1a8d76c7ccc05988dabf3","JN_26",244,1,15,1,3.527999878
"610","5ea1a8d76c7ccc05988dabf3","JN_26",245,1,10,1,2.13499999
"611","5ea1a8d76c7ccc05988dabf3","JN_26",290,1,8,1,1.313999891
"612","5eba5b74cbc2141a6c611331","JN_27",6,1,6,1,1.934000254
"613","5eba5b74cbc2141a6c611331","JN_27",10,1,38,1,1.220000029
"614","5eba5b74cbc2141a6c611331","JN_27",24,1,24,1,2.134000301
"615","5eba5b74cbc2141a6c611331","JN_27",25,1,26,1,1.373000145
"616","5eba5b74cbc2141a6c611331","JN_27",68,1,11,1,1.323000193
"617","5eba5b74cbc2141a6c611331","JN_27",86,1,32,1,0.910000086
"618","5eba5b74cbc2141a6c611331","JN_27",106,1,21,1,1.428000212
"619","5eba5b74cbc2141a6c611331","JN_27",121,1,28,1,2.100000143
"620","5eba5b74cbc2141a6c611331","JN_27",123,1,30,1,1.102000237
"621","5eba5b74cbc2141a6c611331","JN_27",148,1,8,1,1.334000111
"622","5eba5b74cbc2141a6c611331","JN_27",155,1,35,1,1.269999981
"623","5eba5b74cbc2141a6c611331","JN_27",158,1,20,1,1.373000145
"624","5eba5b74cbc2141a6c611331","JN_27",167,1,9,1,1.250000238
"625","5eba5b74cbc2141a6c611331","JN_27",178,1,33,1,0.550000191
"626","5eba5b74cbc2141a6c611331","JN_27",181,1,5,1,0.630000114
"627","5eba5b74cbc2141a6c611331","JN_27",183,1,3,1,0.495000362
"628","5eba5b74cbc2141a6c611331","JN_27",187,1,27,1,0.684000015
"629","5eba5b74cbc2141a6c611331","JN_27",188,1,2,1,0.982000113
"630","5eba5b74cbc2141a6c611331","JN_27",196,1,3,1,1.385000229
"631","5eba5b74cbc2141a6c611331","JN_27",200,1,36,1,1.174000263
"632","5eba5b74cbc2141a6c611331","JN_27",208,1,17,1,1.401000261
"633","5eba5b74cbc2141a6c611331","JN_27",212,1,16,1,0.686000347
"634","5eba5b74cbc2141a6c611331","JN_27",215,1,10,1,1.385000229
"635","5eba5b74cbc2141a6c611331","JN_27",221,1,12,1,0.792000294
"636","5eba5b74cbc2141a6c611331","JN_27",226,1,29,1,1.152000189
"637","5eba5b74cbc2141a6c611331","JN_27",283,1,25,1,0.669000149
"638","5eba5b74cbc2141a6c611331","JN_27",291,1,4,1,1.571000099
"639","5eba5b74cbc2141a6c611331","JN_27",296,1,2,1,1.285000324
"640","5eba5b74cbc2141a6c611331","JN_27",297,1,39,1,0.833000183
"641","5eba5b74cbc2141a6c611331","JN_27",298,1,19,1,1.461000204
"642","5eba5b74cbc2141a6c611331","JN_27",303,1,34,1,1.164000034
"643","5eba5b74cbc2141a6c611331","JN_27",304,1,40,1,1.150000334
"644","5ebaec011a7d64080694fe74","JN_28",9,1,22,1,1.769999981
"645","5ebaec011a7d64080694fe74","JN_28",28,1,19,1,1.842000008
"646","5ebaec011a7d64080694fe74","JN_28",49,1,1,1,1.04399991
"647","5ebaec011a7d64080694fe74","JN_28",57,1,3,1,1.652999878
"648","5ebaec011a7d64080694fe74","JN_28",59,1,16,1,1.630999804
"649","5ebaec011a7d64080694fe74","JN_28",69,1,34,1,2.36899972
"650","5ebaec011a7d64080694fe74","JN_28",72,1,8,1,2.378000021
"651","5ebaec011a7d64080694fe74","JN_28",76,1,4,1,1.087999821
"652","5ebaec011a7d64080694fe74","JN_28",88,1,38,1,1.396999836
"653","5ebaec011a7d64080694fe74","JN_28",95,1,20,1,1.217999935
"654","5ebaec011a7d64080694fe74","JN_28",100,1,15,1,0.730000019
"655","5ebaec011a7d64080694fe74","JN_28",126,1,3,1,1.718999863
"656","5ebaec011a7d64080694fe74","JN_28",128,1,10,1,1.203000069
"657","5ebaec011a7d64080694fe74","JN_28",136,1,17,1,1.837999821
"658","5ebaec011a7d64080694fe74","JN_28",155,1,31,1,0.960999966
"659","5ebaec011a7d64080694fe74","JN_28",157,1,26,1,1.28399992
"660","5ebaec011a7d64080694fe74","JN_28",174,1,5,1,1.727999687
"661","5ebaec011a7d64080694fe74","JN_28",193,1,33,1,1.501999855
"662","5ebaec011a7d64080694fe74","JN_28",199,1,13,1,1.21999979
"663","5ebaec011a7d64080694fe74","JN_28",207,1,6,1,0.251999855
"664","5ebaec011a7d64080694fe74","JN_28",216,1,4,1,2.651999712
"665","5ebaec011a7d64080694fe74","JN_28",219,1,23,1,1.213999987
"666","5ebaec011a7d64080694fe74","JN_28",235,1,24,1,1.972999811
"667","5ebaec011a7d64080694fe74","JN_28",237,1,9,1,1.421999931
"668","5ebaec011a7d64080694fe74","JN_28",294,1,29,1,1.307999849
"669","5ebaec011a7d64080694fe74","JN_28",297,1,28,1,1.215999842
"670","5ebef78c912dc217378a1e34","JN_29",8,1,3,1,1.769999981
"671","5ebef78c912dc217378a1e34","JN_29",22,1,36,1,1.851999998
"672","5ebef78c912dc217378a1e34","JN_29",24,1,39,1,1.583999872
"673","5ebef78c912dc217378a1e34","JN_29",27,1,15,1,1.470000029
"674","5ebef78c912dc217378a1e34","JN_29",39,1,29,1,1.539999962
"675","5ebef78c912dc217378a1e34","JN_29",60,1,19,1,1.902999878
"676","5ebef78c912dc217378a1e34","JN_29",72,1,14,1,1.485999823
"677","5ebef78c912dc217378a1e34","JN_29",85,1,33,1,1.819000006
"678","5ebef78c912dc217378a1e34","JN_29",129,1,22,1,1.840999842
"679","5ebef78c912dc217378a1e34","JN_29",135,1,31,1,1.57799983
"680","5ebef78c912dc217378a1e34","JN_29",138,1,23,1,1.81799984
"681","5ebef78c912dc217378a1e34","JN_29",146,1,4,1,3.133999825
"682","5ebef78c912dc217378a1e34","JN_29",147,1,28,1,1.484999895
"683","5ebef78c912dc217378a1e34","JN_29",170,1,34,1,2.029000044
"684","5ebef78c912dc217378a1e34","JN_29",191,1,9,1,1.801999807
"685","5ebef78c912dc217378a1e34","JN_29",223,1,27,1,1.601999998
"686","5ebef78c912dc217378a1e34","JN_29",229,1,7,1,1.875999928
"687","5ebef78c912dc217378a1e34","JN_29",232,1,1,1,1.807999849
"688","5ebef78c912dc217378a1e34","JN_29",247,1,21,1,1.519999981
"689","5ebef78c912dc217378a1e34","JN_29",256,1,13,1,2.11899972
"690","5ebef78c912dc217378a1e34","JN_29",268,1,25,1,1.9599998
"691","5ebef78c912dc217378a1e34","JN_29",289,1,5,1,1.57799983
"692","5ebef78c912dc217378a1e34","JN_29",293,1,10,1,1.593999863
"693","5ebef78c912dc217378a1e34","JN_29",297,1,3,1,2.41899991
"694","5ebef78c912dc217378a1e34","JN_29",300,1,40,1,1.592999935
"695","5ebef78c912dc217378a1e34","JN_29",301,1,8,1,1.596999884
"696","5ebef78c912dc217378a1e34","JN_29",308,1,26,1,2.402999878
"697","5ebef78c912dc217378a1e34","JN_29",310,1,6,1,1.50999999
"698","5ebef78c912dc217378a1e34","JN_29",314,1,17,1,1.771999836
"699","5beb4883e0a39400015430f5","JN_3",53,1,5,1,1.592999935
"700","5beb4883e0a39400015430f5","JN_3",56,1,21,1,4.845000029
"701","5beb4883e0a39400015430f5","JN_3",84,1,3,1,3.208999872
"702","5beb4883e0a39400015430f5","JN_3",87,1,37,1,4.622999907
"703","5beb4883e0a39400015430f5","JN_3",99,1,4,1,2.577000141
"704","5beb4883e0a39400015430f5","JN_3",108,1,8,1,1.575999975
"705","5beb4883e0a39400015430f5","JN_3",134,1,24,1,2.535999775
"706","5beb4883e0a39400015430f5","JN_3",135,1,23,1,4.393999815
"707","5beb4883e0a39400015430f5","JN_3",174,1,31,1,4.724999905
"708","5beb4883e0a39400015430f5","JN_3",187,1,6,1,1.519999981
"709","5beb4883e0a39400015430f5","JN_3",234,1,2,1,4.392999887
"710","5beb4883e0a39400015430f5","JN_3",250,1,1,1,4.5
"711","5beb4883e0a39400015430f5","JN_3",251,1,11,1,1.786999702
"712","5beb4883e0a39400015430f5","JN_3",270,1,28,1,2.640000105
"713","5beb4883e0a39400015430f5","JN_3",294,1,13,1,4.822999954
"714","5ec48aac33b93f000ab96b7f","JN_30",2,1,1,1,1.810000181
"715","5ec48aac33b93f000ab96b7f","JN_30",4,1,12,1,1.904000044
"716","5ec48aac33b93f000ab96b7f","JN_30",36,1,10,1,1.405999899
"717","5ec48aac33b93f000ab96b7f","JN_30",53,1,1,1,1.356000185
"718","5ec48aac33b93f000ab96b7f","JN_30",66,1,5,1,1.611000061
"719","5ec48aac33b93f000ab96b7f","JN_30",78,1,22,1,1.318000078
"720","5ec48aac33b93f000ab96b7f","JN_30",81,1,36,1,1.150000095
"721","5ec48aac33b93f000ab96b7f","JN_30",90,1,23,1,1.417999983
"722","5ec48aac33b93f000ab96b7f","JN_30",106,1,19,1,1.641000032
"723","5ec48aac33b93f000ab96b7f","JN_30",135,1,32,1,1.788000107
"724","5ec48aac33b93f000ab96b7f","JN_30",159,1,20,1,2.101999998
"725","5ec48aac33b93f000ab96b7f","JN_30",166,1,13,1,1.432999849
"726","5ec48aac33b93f000ab96b7f","JN_30",190,1,6,1,1.174000025
"727","5ec48aac33b93f000ab96b7f","JN_30",192,1,40,1,1.584000111
"728","5ec48aac33b93f000ab96b7f","JN_30",195,1,38,1,1.657999992
"729","5ec48aac33b93f000ab96b7f","JN_30",205,1,28,1,2.471999884
"730","5ec48aac33b93f000ab96b7f","JN_30",214,1,31,1,1.936000109
"731","5ec48aac33b93f000ab96b7f","JN_30",225,1,7,1,1.354000092
"732","5ec48aac33b93f000ab96b7f","JN_30",226,1,39,1,1.125
"733","5ec48aac33b93f000ab96b7f","JN_30",282,1,9,1,1.387000084
"734","5ec48aac33b93f000ab96b7f","JN_30",297,1,37,1,1.417000055
"735","5ec7daede3ca77255864b100","JN_31",31,1,23,1,2.224999905
"736","5ec7daede3ca77255864b100","JN_31",59,1,33,1,1.173000097
"737","5ec7daede3ca77255864b100","JN_31",90,1,8,1,1.559000015
"738","5ec7daede3ca77255864b100","JN_31",91,1,39,1,1.829999924
"739","5ec7daede3ca77255864b100","JN_31",92,1,9,1,1.394000053
"740","5ec7daede3ca77255864b100","JN_31",102,1,20,1,2.130000114
"741","5ec7daede3ca77255864b100","JN_31",169,1,6,1,1.446000099
"742","5ec7daede3ca77255864b100","JN_31",231,1,19,1,2.731000185
"743","5ec7daede3ca77255864b100","JN_31",257,1,17,1,1.348999977
"744","5ec7daede3ca77255864b100","JN_31",307,1,28,1,1.65899992
"745","5ec9830efa4c534a9fea8395","JN_32",4,1,10,1,1.986999989
"746","5ec9830efa4c534a9fea8395","JN_32",8,1,40,1,1.532999992
"747","5ec9830efa4c534a9fea8395","JN_32",19,1,6,1,1.503999949
"748","5ec9830efa4c534a9fea8395","JN_32",23,1,38,1,1.204999924
"749","5ec9830efa4c534a9fea8395","JN_32",24,1,20,1,1.618999958
"750","5ec9830efa4c534a9fea8395","JN_32",26,1,11,1,1.207999945
"751","5ec9830efa4c534a9fea8395","JN_32",52,1,28,1,1.612999916
"752","5ec9830efa4c534a9fea8395","JN_32",55,1,37,1,2.355999947
"753","5ec9830efa4c534a9fea8395","JN_32",63,1,29,1,1.717999935
"754","5ec9830efa4c534a9fea8395","JN_32",73,1,23,1,2.286000013
"755","5ec9830efa4c534a9fea8395","JN_32",84,1,21,1,1.100999832
"756","5ec9830efa4c534a9fea8395","JN_32",85,1,12,1,1.3349998
"757","5ec9830efa4c534a9fea8395","JN_32",96,1,14,1,1.56799984
"758","5ec9830efa4c534a9fea8395","JN_32",105,1,19,1,1.786000013
"759","5ec9830efa4c534a9fea8395","JN_32",106,1,4,1,1.16899991
"760","5ec9830efa4c534a9fea8395","JN_32",110,1,2,1,0.805999756
"761","5ec9830efa4c534a9fea8395","JN_32",113,1,30,1,1.417999983
"762","5ec9830efa4c534a9fea8395","JN_32",127,1,26,1,1.254999876
"763","5ec9830efa4c534a9fea8395","JN_32",150,1,13,1,0.888000011
"764","5ec9830efa4c534a9fea8395","JN_32",153,1,36,1,1.71999979
"765","5ec9830efa4c534a9fea8395","JN_32",173,1,5,1,1.950999975
"766","5ec9830efa4c534a9fea8395","JN_32",182,1,24,1,1.429000139
"767","5ec9830efa4c534a9fea8395","JN_32",189,1,31,1,0.582999945
"768","5ec9830efa4c534a9fea8395","JN_32",215,1,7,1,1.235000134
"769","5ec9830efa4c534a9fea8395","JN_32",220,1,32,1,1.361000061
"770","5ec9830efa4c534a9fea8395","JN_32",223,1,35,1,1.26699996
"771","5ec9830efa4c534a9fea8395","JN_32",225,1,18,1,1.53399992
"772","5ec9830efa4c534a9fea8395","JN_32",226,1,2,1,1.288999796
"773","5ec9830efa4c534a9fea8395","JN_32",231,1,3,1,1.100999832
"774","5ec9830efa4c534a9fea8395","JN_32",235,1,25,1,1.110999823
"775","5ec9830efa4c534a9fea8395","JN_32",242,1,27,1,1.652999878
"776","5ec9830efa4c534a9fea8395","JN_32",248,1,9,1,1.792000055
"777","5ec9830efa4c534a9fea8395","JN_32",252,1,8,1,0.962000132
"778","5ec9830efa4c534a9fea8395","JN_32",263,1,33,1,1.058999777
"779","5ec9830efa4c534a9fea8395","JN_32",278,1,17,1,1.866999865
"780","5ec9830efa4c534a9fea8395","JN_32",288,1,1,1,1.64199996
"781","5ec9830efa4c534a9fea8395","JN_32",298,1,34,1,1.295000076
"782","5ec9830efa4c534a9fea8395","JN_32",306,1,5,1,1.224999905
"783","5ec9830efa4c534a9fea8395","JN_32",307,1,16,1,1.277999878
"784","5ec9830efa4c534a9fea8395","JN_32",308,1,4,1,1.16899991
"785","5ecd611642c5000ab0867d8c","JN_33",14,1,15,1,1.454999924
"786","5ecd611642c5000ab0867d8c","JN_33",15,1,35,1,1.24000001
"787","5ecd611642c5000ab0867d8c","JN_33",16,1,7,1,1.302000046
"788","5ecd611642c5000ab0867d8c","JN_33",23,1,1,1,1.237999916
"789","5ecd611642c5000ab0867d8c","JN_33",45,1,28,1,1.212999821
"790","5ecd611642c5000ab0867d8c","JN_33",56,1,18,1,1.667999983
"791","5ecd611642c5000ab0867d8c","JN_33",59,1,32,1,1.564999819
"792","5ecd611642c5000ab0867d8c","JN_33",60,1,5,1,1.36199975
"793","5ecd611642c5000ab0867d8c","JN_33",67,1,36,1,1.522999763
"794","5ecd611642c5000ab0867d8c","JN_33",82,1,22,1,1.549000025
"795","5ecd611642c5000ab0867d8c","JN_33",105,1,4,1,1.434999943
"796","5ecd611642c5000ab0867d8c","JN_33",109,1,29,1,1.888000011
"797","5ecd611642c5000ab0867d8c","JN_33",111,1,37,1,1.634999752
"798","5ecd611642c5000ab0867d8c","JN_33",154,1,34,1,1.350999832
"799","5ecd611642c5000ab0867d8c","JN_33",158,1,38,1,1.331999779
"800","5ecd611642c5000ab0867d8c","JN_33",159,1,6,1,1.517999887
"801","5ecd611642c5000ab0867d8c","JN_33",164,1,4,1,1.625
"802","5ecd611642c5000ab0867d8c","JN_33",167,1,33,1,1.268999815
"803","5ecd611642c5000ab0867d8c","JN_33",172,1,30,1,1.284999847
"804","5ecd611642c5000ab0867d8c","JN_33",182,1,13,1,1.29399991
"805","5ecd611642c5000ab0867d8c","JN_33",187,1,17,1,1.770999908
"806","5ecd611642c5000ab0867d8c","JN_33",195,1,40,1,2.151000023
"807","5ecd611642c5000ab0867d8c","JN_33",207,1,2,1,1.338999987
"808","5ecd611642c5000ab0867d8c","JN_33",208,1,3,1,1.393999815
"809","5ecd611642c5000ab0867d8c","JN_33",214,1,16,1,1.335999966
"810","5ecd611642c5000ab0867d8c","JN_33",218,1,5,1,1.426999807
"811","5ecd611642c5000ab0867d8c","JN_33",244,1,3,1,1.429999828
"812","5ecd611642c5000ab0867d8c","JN_33",245,1,19,1,1.386999846
"813","5ecd611642c5000ab0867d8c","JN_33",252,1,8,1,2.420999765
"814","5ecd611642c5000ab0867d8c","JN_33",260,1,23,1,1.396999836
"815","5ecd611642c5000ab0867d8c","JN_33",299,1,12,1,1.712999821
"816","5ecd611642c5000ab0867d8c","JN_33",303,1,1,1,1.88499999
"817","5ecd611642c5000ab0867d8c","JN_33",307,1,25,1,2.313999891
"818","5edc753bcee6c1953c31dacd","JN_34",10,1,37,1,2.102999926
"819","5edc753bcee6c1953c31dacd","JN_34",27,1,1,1,1.469000101
"820","5edc753bcee6c1953c31dacd","JN_34",70,1,14,1,1.595000029
"821","5edc753bcee6c1953c31dacd","JN_34",71,1,8,1,1.919000149
"822","5edc753bcee6c1953c31dacd","JN_34",72,1,23,1,3.241000175
"823","5edc753bcee6c1953c31dacd","JN_34",75,1,15,1,1.229000092
"824","5edc753bcee6c1953c31dacd","JN_34",76,1,30,1,1.245000124
"825","5edc753bcee6c1953c31dacd","JN_34",79,1,1,1,1.212000132
"826","5edc753bcee6c1953c31dacd","JN_34",84,1,24,1,0.688000202
"827","5edc753bcee6c1953c31dacd","JN_34",86,1,2,1,1.29399991
"828","5edc753bcee6c1953c31dacd","JN_34",97,1,20,1,1.708000183
"829","5edc753bcee6c1953c31dacd","JN_34",99,1,21,1,0.793000221
"830","5edc753bcee6c1953c31dacd","JN_34",100,1,5,1,1.032000065
"831","5edc753bcee6c1953c31dacd","JN_34",103,1,22,1,2.022000074
"832","5edc753bcee6c1953c31dacd","JN_34",106,1,19,1,1.958000183
"833","5edc753bcee6c1953c31dacd","JN_34",109,1,32,1,2.136000156
"834","5edc753bcee6c1953c31dacd","JN_34",111,1,16,1,1.686000109
"835","5edc753bcee6c1953c31dacd","JN_34",114,1,34,1,2.120000124
"836","5edc753bcee6c1953c31dacd","JN_34",125,1,5,1,1.673000097
"837","5edc753bcee6c1953c31dacd","JN_34",138,1,11,1,1.423000097
"838","5edc753bcee6c1953c31dacd","JN_34",142,1,3,1,1.198000193
"839","5edc753bcee6c1953c31dacd","JN_34",145,1,28,1,1.812999964
"840","5edc753bcee6c1953c31dacd","JN_34",149,1,36,1,2.458000183
"841","5edc753bcee6c1953c31dacd","JN_34",152,1,25,1,1.862000227
"842","5edc753bcee6c1953c31dacd","JN_34",173,1,40,1,2.769000053
"843","5edc753bcee6c1953c31dacd","JN_34",174,1,4,1,2.620000124
"844","5edc753bcee6c1953c31dacd","JN_34",193,1,2,1,1.909000158
"845","5edc753bcee6c1953c31dacd","JN_34",201,1,18,1,0.993999958
"846","5edc753bcee6c1953c31dacd","JN_34",207,1,27,1,2.423000097
"847","5edc753bcee6c1953c31dacd","JN_34",232,1,9,1,1.572999954
"848","5edc753bcee6c1953c31dacd","JN_34",256,1,6,1,1.236999989
"849","5edc753bcee6c1953c31dacd","JN_34",260,1,38,1,1.836999893
"850","5edc753bcee6c1953c31dacd","JN_34",263,1,29,1,4.052000046
"851","5edc753bcee6c1953c31dacd","JN_34",264,1,4,1,2.84100008
"852","5edc753bcee6c1953c31dacd","JN_34",271,1,39,1,2.319000244
"853","5edc753bcee6c1953c31dacd","JN_34",274,1,7,1,4.184000015
"854","5edc753bcee6c1953c31dacd","JN_34",285,1,10,1,1.486999989
"855","5edc753bcee6c1953c31dacd","JN_34",292,1,33,1,0.975000143
"856","5edc753bcee6c1953c31dacd","JN_34",298,1,3,1,1.238000154
"857","5edc753bcee6c1953c31dacd","JN_34",313,1,13,1,0.988000154
"858","5ee9fc1362000a034812d384","JN_35",12,1,7,1,1.407999754
"859","5ee9fc1362000a034812d384","JN_35",13,1,16,1,1.660000086
"860","5ee9fc1362000a034812d384","JN_35",37,1,32,1,1.422999859
"861","5ee9fc1362000a034812d384","JN_35",41,1,2,1,1.351999998
"862","5ee9fc1362000a034812d384","JN_35",47,1,28,1,1.204999924
"863","5ee9fc1362000a034812d384","JN_35",53,1,15,1,1.026000023
"864","5ee9fc1362000a034812d384","JN_35",70,1,37,1,1.318000078
"865","5ee9fc1362000a034812d384","JN_35",79,1,4,1,2.250999928
"866","5ee9fc1362000a034812d384","JN_35",82,1,1,1,1.286999941
"867","5ee9fc1362000a034812d384","JN_35",91,1,27,1,1.384999752
"868","5ee9fc1362000a034812d384","JN_35",94,1,26,1,1.414999962
"869","5ee9fc1362000a034812d384","JN_35",97,1,5,1,1.243000031
"870","5ee9fc1362000a034812d384","JN_35",118,1,20,1,1.375999928
"871","5ee9fc1362000a034812d384","JN_35",119,1,17,1,1.664000034
"872","5ee9fc1362000a034812d384","JN_35",147,1,18,1,1.162999868
"873","5ee9fc1362000a034812d384","JN_35",149,1,30,1,1.161999941
"874","5ee9fc1362000a034812d384","JN_35",166,1,14,1,1.813999891
"875","5ee9fc1362000a034812d384","JN_35",174,1,39,1,1.592999935
"876","5ee9fc1362000a034812d384","JN_35",188,1,33,1,1.60800004
"877","5ee9fc1362000a034812d384","JN_35",199,1,11,1,1.204999924
"878","5ee9fc1362000a034812d384","JN_35",201,1,2,1,0.937999964
"879","5ee9fc1362000a034812d384","JN_35",203,1,31,1,1.279000044
"880","5ee9fc1362000a034812d384","JN_35",204,1,34,1,1.282999754
"881","5ee9fc1362000a034812d384","JN_35",208,1,6,1,1.099999905
"882","5ee9fc1362000a034812d384","JN_35",220,1,40,1,1.630000114
"883","5ee9fc1362000a034812d384","JN_35",221,1,3,1,2.007999897
"884","5ee9fc1362000a034812d384","JN_35",223,1,3,1,1.157999992
"885","5ee9fc1362000a034812d384","JN_35",251,1,36,1,1.248999834
"886","5ee9fc1362000a034812d384","JN_35",258,1,24,1,1.130999804
"887","5ee9fc1362000a034812d384","JN_35",263,1,9,1,1.27699995
"888","5ee9fc1362000a034812d384","JN_35",273,1,10,1,1.447999954
"889","5ee9fc1362000a034812d384","JN_35",282,1,5,1,1.35800004
"890","5ee9fc1362000a034812d384","JN_35",287,1,23,1,1.150999784
"891","5ee9fc1362000a034812d384","JN_35",292,1,19,1,1.336999893
"892","5ee9fc1362000a034812d384","JN_35",303,1,29,1,1.20600009
"893","5ee9fc1362000a034812d384","JN_35",315,1,35,1,1.198999882
"894","5eea3abe701f9c083b4344d4","JN_36",2,1,28,1,2.16899991
"895","5eea3abe701f9c083b4344d4","JN_36",4,1,2,1,1.724999905
"896","5eea3abe701f9c083b4344d4","JN_36",6,1,31,1,1.700999975
"897","5eea3abe701f9c083b4344d4","JN_36",13,1,23,1,1.612999916
"898","5eea3abe701f9c083b4344d4","JN_36",14,1,30,1,3.335999966
"899","5eea3abe701f9c083b4344d4","JN_36",16,1,11,1,1.423999786
"900","5eea3abe701f9c083b4344d4","JN_36",20,1,19,1,1.572999954
"901","5eea3abe701f9c083b4344d4","JN_36",22,1,17,1,1.85199976
"902","5eea3abe701f9c083b4344d4","JN_36",31,1,39,1,1.353999853
"903","5eea3abe701f9c083b4344d4","JN_36",42,1,20,1,1.486999989
"904","5eea3abe701f9c083b4344d4","JN_36",57,1,3,1,1.366999865
"905","5eea3abe701f9c083b4344d4","JN_36",65,1,4,1,1.299999714
"906","5eea3abe701f9c083b4344d4","JN_36",71,1,14,1,1.319000006
"907","5eea3abe701f9c083b4344d4","JN_36",79,1,38,1,1.484999895
"908","5eea3abe701f9c083b4344d4","JN_36",82,1,26,1,1.505000114
"909","5eea3abe701f9c083b4344d4","JN_36",89,1,16,1,1.473999977
"910","5eea3abe701f9c083b4344d4","JN_36",96,1,35,1,1.197000027
"911","5eea3abe701f9c083b4344d4","JN_36",99,1,25,1,1.237999916
"912","5eea3abe701f9c083b4344d4","JN_36",101,1,33,1,1.230999947
"913","5eea3abe701f9c083b4344d4","JN_36",122,1,10,1,1.683999777
"914","5eea3abe701f9c083b4344d4","JN_36",130,1,27,1,1.454999924
"915","5eea3abe701f9c083b4344d4","JN_36",131,1,6,1,1.385999918
"916","5eea3abe701f9c083b4344d4","JN_36",137,1,4,1,1.361999989
"917","5eea3abe701f9c083b4344d4","JN_36",150,1,21,1,1.411000013
"918","5eea3abe701f9c083b4344d4","JN_36",160,1,37,1,1.318000078
"919","5eea3abe701f9c083b4344d4","JN_36",169,1,36,1,1.642999887
"920","5eea3abe701f9c083b4344d4","JN_36",179,1,5,1,1.605999947
"921","5eea3abe701f9c083b4344d4","JN_36",200,1,2,1,1.542000055
"922","5eea3abe701f9c083b4344d4","JN_36",217,1,1,1,1.476000071
"923","5eea3abe701f9c083b4344d4","JN_36",226,1,34,1,1.493999958
"924","5eea3abe701f9c083b4344d4","JN_36",231,1,32,1,1.483999968
"925","5eea3abe701f9c083b4344d4","JN_36",236,1,18,1,1.45299983
"926","5eea3abe701f9c083b4344d4","JN_36",239,1,8,1,1.363999844
"927","5eea3abe701f9c083b4344d4","JN_36",262,1,13,1,1.461999893
"928","5eea3abe701f9c083b4344d4","JN_36",271,1,24,1,1.437999964
"929","5eea3abe701f9c083b4344d4","JN_36",281,1,12,1,1.545999765
"930","5eea3abe701f9c083b4344d4","JN_36",292,1,9,1,1.395999908
"931","5eea3abe701f9c083b4344d4","JN_36",307,1,40,1,1.394000053
"932","5ef5f63c7aa58727ac4f8588","JN_37",4,1,11,1,1.457000017
"933","5ef5f63c7aa58727ac4f8588","JN_37",29,1,28,1,1.219000101
"934","5ef5f63c7aa58727ac4f8588","JN_37",33,1,10,1,1.369999886
"935","5ef5f63c7aa58727ac4f8588","JN_37",38,1,13,1,1.561999798
"936","5ef5f63c7aa58727ac4f8588","JN_37",46,1,30,1,1.373999834
"937","5ef5f63c7aa58727ac4f8588","JN_37",57,1,23,1,1.336999893
"938","5ef5f63c7aa58727ac4f8588","JN_37",60,1,15,1,1.352999926
"939","5ef5f63c7aa58727ac4f8588","JN_37",63,1,1,1,1.373999834
"940","5ef5f63c7aa58727ac4f8588","JN_37",65,1,7,1,1.04399991
"941","5ef5f63c7aa58727ac4f8588","JN_37",83,1,35,1,1.605999947
"942","5ef5f63c7aa58727ac4f8588","JN_37",97,1,40,1,1.320999861
"943","5ef5f63c7aa58727ac4f8588","JN_37",114,1,8,1,1.378999949
"944","5ef5f63c7aa58727ac4f8588","JN_37",123,1,5,1,1.562999964
"945","5ef5f63c7aa58727ac4f8588","JN_37",127,1,31,1,1.757999897
"946","5ef5f63c7aa58727ac4f8588","JN_37",145,1,25,1,1.436999798
"947","5ef5f63c7aa58727ac4f8588","JN_37",150,1,26,1,1.421999931
"948","5ef5f63c7aa58727ac4f8588","JN_37",188,1,21,1,1.444000006
"949","5ef5f63c7aa58727ac4f8588","JN_37",201,1,2,1,1.440999985
"950","5ef5f63c7aa58727ac4f8588","JN_37",215,1,22,1,1.327000141
"951","5ef5f63c7aa58727ac4f8588","JN_37",217,1,6,1,1.682999849
"952","5ef5f63c7aa58727ac4f8588","JN_37",218,1,32,1,1.61199975
"953","5ef5f63c7aa58727ac4f8588","JN_37",227,1,20,1,1.471999884
"954","5ef5f63c7aa58727ac4f8588","JN_37",232,1,29,1,1.559999943
"955","5ef5f63c7aa58727ac4f8588","JN_37",234,1,27,1,1.645999908
"956","5ef5f63c7aa58727ac4f8588","JN_37",236,1,19,1,1.551999807
"957","5ef5f63c7aa58727ac4f8588","JN_37",250,1,4,1,1.652999878
"958","5ef5f63c7aa58727ac4f8588","JN_37",258,1,9,1,1.609999895
"959","5ef5f63c7aa58727ac4f8588","JN_37",267,1,2,1,1.385999918
"960","5ef5f63c7aa58727ac4f8588","JN_37",270,1,12,1,1.34499979
"961","5ef5f63c7aa58727ac4f8588","JN_37",309,1,17,1,1.404999733
"962","5efa06a7540ce97e3ed866f8","JN_38",10,1,35,1,1.641000032
"963","5efa06a7540ce97e3ed866f8","JN_38",15,1,34,1,1.469000101
"964","5efa06a7540ce97e3ed866f8","JN_38",17,1,1,1,1.263000011
"965","5efa06a7540ce97e3ed866f8","JN_38",18,1,21,1,1.509000063
"966","5efa06a7540ce97e3ed866f8","JN_38",30,1,7,1,1.744999886
"967","5efa06a7540ce97e3ed866f8","JN_38",45,1,38,1,1.950999975
"968","5efa06a7540ce97e3ed866f8","JN_38",53,1,5,1,1.552999973
"969","5efa06a7540ce97e3ed866f8","JN_38",54,1,24,1,2.660000086
"970","5efa06a7540ce97e3ed866f8","JN_38",59,1,36,1,1.677000046
"971","5efa06a7540ce97e3ed866f8","JN_38",70,1,22,1,1.852999926
"972","5efa06a7540ce97e3ed866f8","JN_38",91,1,6,1,1.523999929
"973","5efa06a7540ce97e3ed866f8","JN_38",108,1,40,1,1.855999947
"974","5efa06a7540ce97e3ed866f8","JN_38",136,1,9,1,1.600000143
"975","5efa06a7540ce97e3ed866f8","JN_38",142,1,11,1,1.70600009
"976","5efa06a7540ce97e3ed866f8","JN_38",152,1,33,1,1.657000065
"977","5efa06a7540ce97e3ed866f8","JN_38",153,1,17,1,1.657999992
"978","5efa06a7540ce97e3ed866f8","JN_38",180,1,3,1,1.528000116
"979","5efa06a7540ce97e3ed866f8","JN_38",187,1,31,1,3.684000015
"980","5efa06a7540ce97e3ed866f8","JN_38",192,1,12,1,1.774999857
"981","5efa06a7540ce97e3ed866f8","JN_38",195,1,39,1,10.64300013
"982","5efa06a7540ce97e3ed866f8","JN_38",203,1,14,1,1.620000124
"983","5efa06a7540ce97e3ed866f8","JN_38",209,1,5,1,3.027999878
"984","5efa06a7540ce97e3ed866f8","JN_38",214,1,10,1,1.679000139
"985","5efa06a7540ce97e3ed866f8","JN_38",240,1,13,1,2.487999916
"986","5efa06a7540ce97e3ed866f8","JN_38",277,1,28,1,9.861000061
"987","5efa06a7540ce97e3ed866f8","JN_38",284,1,29,1,2.07799983
"988","5efa06a7540ce97e3ed866f8","JN_38",286,1,1,1,4.243000031
"989","5efa06a7540ce97e3ed866f8","JN_38",287,1,15,1,1.727999926
"990","5efa06a7540ce97e3ed866f8","JN_38",301,1,16,1,2.661999941
"991","5f03a5e0afde375dac92148b","JN_39",31,1,38,1,1.566999912
"992","5f03a5e0afde375dac92148b","JN_39",32,1,11,1,2.384000063
"993","5f03a5e0afde375dac92148b","JN_39",44,1,29,1,4.366999865
"994","5f03a5e0afde375dac92148b","JN_39",86,1,5,1,1.902999878
"995","5f03a5e0afde375dac92148b","JN_39",93,1,9,1,2.518000126
"996","5f03a5e0afde375dac92148b","JN_39",127,1,24,1,2.071000099
"997","5f03a5e0afde375dac92148b","JN_39",144,1,36,1,2.248999834
"998","5f03a5e0afde375dac92148b","JN_39",150,1,17,1,2.118000031
"999","5f03a5e0afde375dac92148b","JN_39",190,1,2,1,4.549999952
"1000","5f03a5e0afde375dac92148b","JN_39",228,1,39,1,1.301000118
"1001","5f03a5e0afde375dac92148b","JN_39",239,1,5,1,5.970999956
"1002","5f03a5e0afde375dac92148b","JN_39",244,1,15,1,1.268000126
"1003","5f03a5e0afde375dac92148b","JN_39",266,1,6,1,1.352999926
"1004","5f03a5e0afde375dac92148b","JN_39",271,1,28,1,1.887000084
"1005","5f03a5e0afde375dac92148b","JN_39",276,1,27,1,3.384000063
"1006","5c324c1d0091e40001cc5a34","JN_4",10,1,11,1,1.519000053
"1007","5c324c1d0091e40001cc5a34","JN_4",13,1,28,1,1.642999887
"1008","5c324c1d0091e40001cc5a34","JN_4",25,1,5,1,1.231999874
"1009","5c324c1d0091e40001cc5a34","JN_4",26,1,4,1,1.246999741
"1010","5c324c1d0091e40001cc5a34","JN_4",38,1,39,1,1.679999828
"1011","5c324c1d0091e40001cc5a34","JN_4",47,1,21,1,1.759000063
"1012","5c324c1d0091e40001cc5a34","JN_4",50,1,24,1,2.119999886
"1013","5c324c1d0091e40001cc5a34","JN_4",78,1,27,1,1.166000128
"1014","5c324c1d0091e40001cc5a34","JN_4",85,1,23,1,1.34800005
"1015","5c324c1d0091e40001cc5a34","JN_4",88,1,9,1,1.34800005
"1016","5c324c1d0091e40001cc5a34","JN_4",98,1,12,1,1.411000013
"1017","5c324c1d0091e40001cc5a34","JN_4",101,1,17,1,1.155999899
"1018","5c324c1d0091e40001cc5a34","JN_4",107,1,25,1,1.188999891
"1019","5c324c1d0091e40001cc5a34","JN_4",113,1,35,1,1.414999962
"1020","5c324c1d0091e40001cc5a34","JN_4",115,1,40,1,1.592999935
"1021","5c324c1d0091e40001cc5a34","JN_4",129,1,3,1,1.735999823
"1022","5c324c1d0091e40001cc5a34","JN_4",140,1,36,1,1.475999832
"1023","5c324c1d0091e40001cc5a34","JN_4",141,1,20,1,1.270999908
"1024","5c324c1d0091e40001cc5a34","JN_4",158,1,14,1,1.375999928
"1025","5c324c1d0091e40001cc5a34","JN_4",162,1,1,1,1.426999807
"1026","5c324c1d0091e40001cc5a34","JN_4",183,1,37,1,1.102999926
"1027","5c324c1d0091e40001cc5a34","JN_4",187,1,7,1,1.018999815
"1028","5c324c1d0091e40001cc5a34","JN_4",194,1,1,1,1.194999933
"1029","5c324c1d0091e40001cc5a34","JN_4",200,1,19,1,1.478999853
"1030","5c324c1d0091e40001cc5a34","JN_4",209,1,3,1,1.412999868
"1031","5c324c1d0091e40001cc5a34","JN_4",215,1,26,1,2.148000002
"1032","5c324c1d0091e40001cc5a34","JN_4",216,1,32,1,1.028999805
"1033","5c324c1d0091e40001cc5a34","JN_4",236,1,38,1,1.686000109
"1034","5c324c1d0091e40001cc5a34","JN_4",237,1,6,1,1.760999918
"1035","5c324c1d0091e40001cc5a34","JN_4",248,1,2,1,2.013999939
"1036","5c324c1d0091e40001cc5a34","JN_4",253,1,2,1,2.605999947
"1037","5c324c1d0091e40001cc5a34","JN_4",276,1,13,1,2.493999958
"1038","5c324c1d0091e40001cc5a34","JN_4",299,1,31,1,1.09100008
"1039","5f061ade057bf613fe86893d","JN_40",2,1,3,1,1.687000275
"1040","5f061ade057bf613fe86893d","JN_40",6,1,18,1,3.368999958
"1041","5f061ade057bf613fe86893d","JN_40",12,1,36,1,1.43200016
"1042","5f061ade057bf613fe86893d","JN_40",20,1,1,1,2.164000034
"1043","5f061ade057bf613fe86893d","JN_40",40,1,32,1,1.491000175
"1044","5f061ade057bf613fe86893d","JN_40",44,1,7,1,1.161000252
"1045","5f061ade057bf613fe86893d","JN_40",53,1,4,1,1.24000001
"1046","5f061ade057bf613fe86893d","JN_40",59,1,21,1,1.337000132
"1047","5f061ade057bf613fe86893d","JN_40",77,1,2,1,1.190999985
"1048","5f061ade057bf613fe86893d","JN_40",95,1,29,1,1.07400012
"1049","5f061ade057bf613fe86893d","JN_40",130,1,26,1,1.661999941
"1050","5f061ade057bf613fe86893d","JN_40",139,1,25,1,0.612999916
"1051","5f061ade057bf613fe86893d","JN_40",146,1,35,1,1.235000134
"1052","5f061ade057bf613fe86893d","JN_40",167,1,2,1,0.812999964
"1053","5f061ade057bf613fe86893d","JN_40",171,1,3,1,0.918000221
"1054","5f061ade057bf613fe86893d","JN_40",179,1,1,1,0.677000046
"1055","5f061ade057bf613fe86893d","JN_40",181,1,23,1,1.069000006
"1056","5f061ade057bf613fe86893d","JN_40",185,1,40,1,1.582999945
"1057","5f061ade057bf613fe86893d","JN_40",201,1,12,1,0.809000254
"1058","5f061ade057bf613fe86893d","JN_40",208,1,8,1,0.981000185
"1059","5f061ade057bf613fe86893d","JN_40",218,1,34,1,0.893000126
"1060","5f061ade057bf613fe86893d","JN_40",220,1,9,1,1.263000011
"1061","5f061ade057bf613fe86893d","JN_40",244,1,5,1,1.233999968
"1062","5f061ade057bf613fe86893d","JN_40",245,1,19,1,1.161999941
"1063","5f061ade057bf613fe86893d","JN_40",251,1,15,1,1.285000086
"1064","5f061ade057bf613fe86893d","JN_40",270,1,13,1,0.969000101
"1065","5f061ade057bf613fe86893d","JN_40",277,1,39,1,1.075999975
"1066","5f061ade057bf613fe86893d","JN_40",290,1,11,1,1.934000015
"1067","5f061ade057bf613fe86893d","JN_40",292,1,17,1,0.890000105
"1068","5f061ade057bf613fe86893d","JN_40",300,1,4,1,1.453000069
"1069","5f061ade057bf613fe86893d","JN_40",311,1,20,1,1.311000109
"1070","5f072de78ef9940c5dbabf80","JN_41",5,1,40,1,1.637000084
"1071","5f072de78ef9940c5dbabf80","JN_41",6,1,32,1,1.319000006
"1072","5f072de78ef9940c5dbabf80","JN_41",8,1,2,1,1.690000057
"1073","5f072de78ef9940c5dbabf80","JN_41",22,1,15,1,2.253000021
"1074","5f072de78ef9940c5dbabf80","JN_41",29,1,25,1,1.670000076
"1075","5f072de78ef9940c5dbabf80","JN_41",49,1,39,1,1.875000238
"1076","5f072de78ef9940c5dbabf80","JN_41",78,1,8,1,1.936000109
"1077","5f072de78ef9940c5dbabf80","JN_41",80,1,37,1,2.472000122
"1078","5f072de78ef9940c5dbabf80","JN_41",82,1,4,1,2.669000149
"1079","5f072de78ef9940c5dbabf80","JN_41",83,1,22,1,3.901000023
"1080","5f072de78ef9940c5dbabf80","JN_41",87,1,7,1,0.637000084
"1081","5f072de78ef9940c5dbabf80","JN_41",97,1,16,1,1.25
"1082","5f072de78ef9940c5dbabf80","JN_41",98,1,36,1,1.769000053
"1083","5f072de78ef9940c5dbabf80","JN_41",100,1,3,1,2.548000097
"1084","5f072de78ef9940c5dbabf80","JN_41",104,1,1,1,0.404000044
"1085","5f072de78ef9940c5dbabf80","JN_41",107,1,5,1,1.054000139
"1086","5f072de78ef9940c5dbabf80","JN_41",119,1,9,1,1.13499999
"1087","5f072de78ef9940c5dbabf80","JN_41",124,1,13,1,0.495000124
"1088","5f072de78ef9940c5dbabf80","JN_41",132,1,1,1,3.938999891
"1089","5f072de78ef9940c5dbabf80","JN_41",162,1,11,1,2.604000092
"1090","5f072de78ef9940c5dbabf80","JN_41",171,1,12,1,2.137000084
"1091","5f072de78ef9940c5dbabf80","JN_41",173,1,35,1,1.486000061
"1092","5f072de78ef9940c5dbabf80","JN_41",180,1,26,1,1.245000124
"1093","5f072de78ef9940c5dbabf80","JN_41",183,1,4,1,1.27300024
"1094","5f072de78ef9940c5dbabf80","JN_41",189,1,21,1,1.151000023
"1095","5f072de78ef9940c5dbabf80","JN_41",195,1,23,1,1.024000168
"1096","5f072de78ef9940c5dbabf80","JN_41",196,1,17,1,1.24000001
"1097","5f072de78ef9940c5dbabf80","JN_41",222,1,19,1,3.993000269
"1098","5f072de78ef9940c5dbabf80","JN_41",236,1,31,1,0.523000002
"1099","5f072de78ef9940c5dbabf80","JN_41",238,1,18,1,0.461999893
"1100","5f072de78ef9940c5dbabf80","JN_41",244,1,30,1,1.519000053
"1101","5f072de78ef9940c5dbabf80","JN_41",288,1,10,1,0.736000061
"1102","5f072de78ef9940c5dbabf80","JN_41",292,1,14,1,3.755000114
"1103","5f072de78ef9940c5dbabf80","JN_41",296,1,6,1,1.604000092
"1104","5f0af202ec6afa02e8db0daf","JN_42",2,1,19,1,1.767000198
"1105","5f0af202ec6afa02e8db0daf","JN_42",6,1,36,1,1.717000246
"1106","5f0af202ec6afa02e8db0daf","JN_42",10,1,4,1,1.320000172
"1107","5f0af202ec6afa02e8db0daf","JN_42",13,1,1,1,1.674000263
"1108","5f0af202ec6afa02e8db0daf","JN_42",22,1,30,1,1.053000212
"1109","5f0af202ec6afa02e8db0daf","JN_42",27,1,18,1,2.019000292
"1110","5f0af202ec6afa02e8db0daf","JN_42",47,1,12,1,1.834000349
"1111","5f0af202ec6afa02e8db0daf","JN_42",61,1,24,1,1.05700016
"1112","5f0af202ec6afa02e8db0daf","JN_42",68,1,34,1,0.802000046
"1113","5f0af202ec6afa02e8db0daf","JN_42",74,1,3,1,1.118000031
"1114","5f0af202ec6afa02e8db0daf","JN_42",99,1,2,1,0.868000031
"1115","5f0af202ec6afa02e8db0daf","JN_42",100,1,20,1,1.136000156
"1116","5f0af202ec6afa02e8db0daf","JN_42",101,1,25,1,1.386000156
"1117","5f0af202ec6afa02e8db0daf","JN_42",128,1,31,1,0.986000061
"1118","5f0af202ec6afa02e8db0daf","JN_42",134,1,37,1,0.541000128
"1119","5f0af202ec6afa02e8db0daf","JN_42",137,1,33,1,0.702000141
"1120","5f0af202ec6afa02e8db0daf","JN_42",138,1,2,1,1.302000284
"1121","5f0af202ec6afa02e8db0daf","JN_42",146,1,13,1,0.618000031
"1122","5f0af202ec6afa02e8db0daf","JN_42",176,1,26,1,0.467000008
"1123","5f0af202ec6afa02e8db0daf","JN_42",178,1,4,1,0.567000151
"1124","5f0af202ec6afa02e8db0daf","JN_42",203,1,14,1,1.667999983
"1125","5f0af202ec6afa02e8db0daf","JN_42",228,1,21,1,1.618000269
"1126","5f0af202ec6afa02e8db0daf","JN_42",236,1,39,1,1.303000212
"1127","5f0af202ec6afa02e8db0daf","JN_42",237,1,17,1,1.202000141
"1128","5f0af202ec6afa02e8db0daf","JN_42",243,1,5,1,1.017000198
"1129","5f0af202ec6afa02e8db0daf","JN_42",266,1,16,1,0.953000069
"1130","5f0af202ec6afa02e8db0daf","JN_42",269,1,27,1,0.954000235
"1131","5f0af202ec6afa02e8db0daf","JN_42",277,1,5,1,0.583000183
"1132","5f0af202ec6afa02e8db0daf","JN_42",306,1,3,1,0.509000063
"1133","5f18b87cbf17db0e94068679","JN_44",2,1,36,1,1.70299983
"1134","5f18b87cbf17db0e94068679","JN_44",7,1,5,1,1.888000011
"1135","5f18b87cbf17db0e94068679","JN_44",10,1,4,1,2.131999969
"1136","5f18b87cbf17db0e94068679","JN_44",14,1,24,1,2.427999973
"1137","5f18b87cbf17db0e94068679","JN_44",15,1,3,1,2.15899992
"1138","5f18b87cbf17db0e94068679","JN_44",43,1,27,1,1.785000086
"1139","5f18b87cbf17db0e94068679","JN_44",48,1,37,1,1.732000113
"1140","5f18b87cbf17db0e94068679","JN_44",53,1,10,1,1.492999792
"1141","5f18b87cbf17db0e94068679","JN_44",63,1,7,1,1.633000135
"1142","5f18b87cbf17db0e94068679","JN_44",86,1,23,1,1.328000069
"1143","5f18b87cbf17db0e94068679","JN_44",96,1,9,1,1.688999891
"1144","5f18b87cbf17db0e94068679","JN_44",112,1,16,1,1.71600008
"1145","5f18b87cbf17db0e94068679","JN_44",124,1,18,1,1.490999937
"1146","5f18b87cbf17db0e94068679","JN_44",129,1,30,1,1.678999901
"1147","5f18b87cbf17db0e94068679","JN_44",135,1,5,1,1.709000111
"1148","5f18b87cbf17db0e94068679","JN_44",141,1,35,1,1.356000185
"1149","5f18b87cbf17db0e94068679","JN_44",151,1,1,1,2.291999817
"1150","5f18b87cbf17db0e94068679","JN_44",153,1,34,1,1.849000216
"1151","5f18b87cbf17db0e94068679","JN_44",161,1,33,1,1.296999931
"1152","5f18b87cbf17db0e94068679","JN_44",169,1,31,1,2.309999943
"1153","5f18b87cbf17db0e94068679","JN_44",173,1,8,1,1.292000055
"1154","5f18b87cbf17db0e94068679","JN_44",175,1,6,1,1.411999941
"1155","5f18b87cbf17db0e94068679","JN_44",183,1,28,1,1.607000113
"1156","5f18b87cbf17db0e94068679","JN_44",222,1,17,1,2.226999998
"1157","5f18b87cbf17db0e94068679","JN_44",232,1,2,1,1.358999968
"1158","5f18b87cbf17db0e94068679","JN_44",241,1,2,1,1.85800004
"1159","5f18b87cbf17db0e94068679","JN_44",257,1,39,1,3.107000113
"1160","5f18b87cbf17db0e94068679","JN_44",268,1,38,1,1.912999868
"1161","5f18b87cbf17db0e94068679","JN_44",272,1,13,1,1.316999912
"1162","5f18b87cbf17db0e94068679","JN_44",292,1,12,1,2.343999863
"1163","5f18b87cbf17db0e94068679","JN_44",304,1,3,1,3.463000059
"1164","5f1e160aaaffd77af020ad14","JN_45",5,1,11,1,1.875000238
"1165","5f1e160aaaffd77af020ad14","JN_45",13,1,36,1,1.260000229
"1166","5f1e160aaaffd77af020ad14","JN_45",20,1,31,1,1.291000128
"1167","5f1e160aaaffd77af020ad14","JN_45",53,1,28,1,1.353000164
"1168","5f1e160aaaffd77af020ad14","JN_45",63,1,29,1,1.934000254
"1169","5f1e160aaaffd77af020ad14","JN_45",70,1,4,1,1.217000246
"1170","5f1e160aaaffd77af020ad14","JN_45",82,1,34,1,1.248000145
"1171","5f1e160aaaffd77af020ad14","JN_45",83,1,23,1,1.988000154
"1172","5f1e160aaaffd77af020ad14","JN_45",84,1,15,1,1.518000126
"1173","5f1e160aaaffd77af020ad14","JN_45",90,1,6,1,1.43900013
"1174","5f1e160aaaffd77af020ad14","JN_45",96,1,3,1,1.35400033
"1175","5f1e160aaaffd77af020ad14","JN_45",101,1,7,1,1.263000011
"1176","5f1e160aaaffd77af020ad14","JN_45",166,1,3,1,1.232000351
"1177","5f1e160aaaffd77af020ad14","JN_45",168,1,22,1,1.899000168
"1178","5f1e160aaaffd77af020ad14","JN_45",174,1,1,1,1.380000114
"1179","5f1e160aaaffd77af020ad14","JN_45",190,1,5,1,1.492000103
"1180","5f1e160aaaffd77af020ad14","JN_45",192,1,18,1,1.268000126
"1181","5f1e160aaaffd77af020ad14","JN_45",231,1,26,1,1.488000154
"1182","5f1e160aaaffd77af020ad14","JN_45",250,1,9,1,1.618000031
"1183","5f1e160aaaffd77af020ad14","JN_45",264,1,27,1,2.044000387
"1184","5f1e160aaaffd77af020ad14","JN_45",269,1,25,1,1.377000093
"1185","5f1e160aaaffd77af020ad14","JN_45",273,1,30,1,1.63800025
"1186","5f1e160aaaffd77af020ad14","JN_45",284,1,16,1,1.055000067
"1187","5f1e160aaaffd77af020ad14","JN_45",292,1,1,1,1.004000187
"1188","5f1e160aaaffd77af020ad14","JN_45",298,1,10,1,1.301000118
"1189","5f1e160aaaffd77af020ad14","JN_45",302,1,21,1,1.318000317
"1190","5f1e160aaaffd77af020ad14","JN_45",313,1,2,1,1.325000048
"1191","5f29f7fb1320c300095c97fa","JN_46",3,1,39,1,1.815999985
"1192","5f29f7fb1320c300095c97fa","JN_46",12,1,11,1,1.78399992
"1193","5f29f7fb1320c300095c97fa","JN_46",21,1,38,1,1.450000048
"1194","5f29f7fb1320c300095c97fa","JN_46",32,1,25,1,2.037000179
"1195","5f29f7fb1320c300095c97fa","JN_46",45,1,3,1,1.5
"1196","5f29f7fb1320c300095c97fa","JN_46",46,1,4,1,2.082999945
"1197","5f29f7fb1320c300095c97fa","JN_46",48,1,29,1,1.366999865
"1198","5f29f7fb1320c300095c97fa","JN_46",51,1,2,1,1.71600008
"1199","5f29f7fb1320c300095c97fa","JN_46",57,1,36,1,1.384000063
"1200","5f29f7fb1320c300095c97fa","JN_46",61,1,15,1,1.900000095
"1201","5f29f7fb1320c300095c97fa","JN_46",69,1,17,1,1.26699996
"1202","5f29f7fb1320c300095c97fa","JN_46",70,1,1,1,1.583000183
"1203","5f29f7fb1320c300095c97fa","JN_46",71,1,28,1,1.649999857
"1204","5f29f7fb1320c300095c97fa","JN_46",92,1,4,1,1.417000055
"1205","5f29f7fb1320c300095c97fa","JN_46",96,1,23,1,1.816999912
"1206","5f29f7fb1320c300095c97fa","JN_46",102,1,34,1,1.366999865
"1207","5f29f7fb1320c300095c97fa","JN_46",103,1,32,1,1.316999912
"1208","5f29f7fb1320c300095c97fa","JN_46",107,1,5,1,1.633999825
"1209","5f29f7fb1320c300095c97fa","JN_46",118,1,22,1,1.851000071
"1210","5f29f7fb1320c300095c97fa","JN_46",119,1,30,1,2.03399992
"1211","5f29f7fb1320c300095c97fa","JN_46",141,1,14,1,0.983999968
"1212","5f29f7fb1320c300095c97fa","JN_46",143,1,6,1,1.5
"1213","5f29f7fb1320c300095c97fa","JN_46",150,1,18,1,1.467000008
"1214","5f29f7fb1320c300095c97fa","JN_46",152,1,37,1,0.850000143
"1215","5f29f7fb1320c300095c97fa","JN_46",162,1,8,1,1.167999983
"1216","5f29f7fb1320c300095c97fa","JN_46",163,1,35,1,1.233999968
"1217","5f29f7fb1320c300095c97fa","JN_46",200,1,9,1,0.950999975
"1218","5f29f7fb1320c300095c97fa","JN_46",226,1,40,1,1.382999897
"1219","5f29f7fb1320c300095c97fa","JN_46",241,1,2,1,3.833999872
"1220","5f29f7fb1320c300095c97fa","JN_46",247,1,27,1,1.433000088
"1221","5f29f7fb1320c300095c97fa","JN_46",283,1,12,1,1.616000175
"1222","5f29f7fb1320c300095c97fa","JN_46",286,1,5,1,1.217000008
"1223","5f29f7fb1320c300095c97fa","JN_46",302,1,33,1,1.734000206
"1224","5f29f7fb1320c300095c97fa","JN_46",303,1,20,1,1.649999857
"1225","5f29f7fb1320c300095c97fa","JN_46",314,1,24,1,1.75
"1226","5f3968222efa0a4ecb089957","JN_48",11,1,35,1,1.743999958
"1227","5f3968222efa0a4ecb089957","JN_48",12,1,3,1,1.773999929
"1228","5f3968222efa0a4ecb089957","JN_48",20,1,11,1,1.91899991
"1229","5f3968222efa0a4ecb089957","JN_48",29,1,18,1,2.412999868
"1230","5f3968222efa0a4ecb089957","JN_48",53,1,7,1,1.80099988
"1231","5f3968222efa0a4ecb089957","JN_48",80,1,4,1,2.267999887
"1232","5f3968222efa0a4ecb089957","JN_48",108,1,25,1,2.288999796
"1233","5f3968222efa0a4ecb089957","JN_48",115,1,33,1,2.318999767
"1234","5f3968222efa0a4ecb089957","JN_48",121,1,20,1,1.940999985
"1235","5f3968222efa0a4ecb089957","JN_48",175,1,3,1,3.052000046
"1236","5f3968222efa0a4ecb089957","JN_48",176,1,15,1,2.217999935
"1237","5f3968222efa0a4ecb089957","JN_48",192,1,9,1,1.8349998
"1238","5f3968222efa0a4ecb089957","JN_48",199,1,17,1,1.872999907
"1239","5f3968222efa0a4ecb089957","JN_48",206,1,27,1,2.628000021
"1240","5f3968222efa0a4ecb089957","JN_48",218,1,1,1,2.034999847
"1241","5f3968222efa0a4ecb089957","JN_48",249,1,19,1,2.39199996
"1242","5f3968222efa0a4ecb089957","JN_48",250,1,16,1,2.109999895
"1243","5f3968222efa0a4ecb089957","JN_48",254,1,2,1,1.90199995
"1244","5f3968222efa0a4ecb089957","JN_48",271,1,39,1,2.63499999
"1245","5f3968222efa0a4ecb089957","JN_48",277,1,28,1,2.878999949
"1246","5f3968222efa0a4ecb089957","JN_48",292,1,23,1,1.884999752
"1247","5f3968222efa0a4ecb089957","JN_48",302,1,36,1,1.45600009
"1248","5f3968222efa0a4ecb089957","JN_48",308,1,2,1,1.690999985
"1249","5f3968222efa0a4ecb089957","JN_48",311,1,30,1,1.772000074
"1250","5f3d220abc6c4a0318e672f8","JN_49",11,1,39,1,2.486000299
"1251","5f3d220abc6c4a0318e672f8","JN_49",21,1,35,1,1.604000092
"1252","5f3d220abc6c4a0318e672f8","JN_49",32,1,10,1,2.319000244
"1253","5f3d220abc6c4a0318e672f8","JN_49",39,1,33,1,2.186000109
"1254","5f3d220abc6c4a0318e672f8","JN_49",40,1,11,1,2.836000204
"1255","5f3d220abc6c4a0318e672f8","JN_49",45,1,17,1,2.272000074
"1256","5f3d220abc6c4a0318e672f8","JN_49",47,1,2,1,1.476000071
"1257","5f3d220abc6c4a0318e672f8","JN_49",54,1,1,1,2.359000206
"1258","5f3d220abc6c4a0318e672f8","JN_49",57,1,20,1,1.402999878
"1259","5f3d220abc6c4a0318e672f8","JN_49",68,1,23,1,1.289000034
"1260","5f3d220abc6c4a0318e672f8","JN_49",79,1,7,1,0.858000278
"1261","5f3d220abc6c4a0318e672f8","JN_49",84,1,1,1,1.431999922
"1262","5f3d220abc6c4a0318e672f8","JN_49",88,1,5,1,1.219000101
"1263","5f3d220abc6c4a0318e672f8","JN_49",92,1,36,1,1.20600009
"1264","5f3d220abc6c4a0318e672f8","JN_49",101,1,19,1,1.184999943
"1265","5f3d220abc6c4a0318e672f8","JN_49",148,1,8,1,0.961000204
"1266","5f3d220abc6c4a0318e672f8","JN_49",152,1,2,1,1.28000021
"1267","5f3d220abc6c4a0318e672f8","JN_49",158,1,24,1,1.054000139
"1268","5f3d220abc6c4a0318e672f8","JN_49",164,1,12,1,1.269000053
"1269","5f3d220abc6c4a0318e672f8","JN_49",170,1,5,1,1.786000013
"1270","5f3d220abc6c4a0318e672f8","JN_49",196,1,30,1,1.236999989
"1271","5f3d220abc6c4a0318e672f8","JN_49",202,1,37,1,0.962000132
"1272","5f3d220abc6c4a0318e672f8","JN_49",209,1,3,1,1.238000154
"1273","5f3d220abc6c4a0318e672f8","JN_49",211,1,31,1,0.953000069
"1274","5f3d220abc6c4a0318e672f8","JN_49",213,1,32,1,1.391000032
"1275","5f3d220abc6c4a0318e672f8","JN_49",242,1,15,1,0.375
"1276","5f3d220abc6c4a0318e672f8","JN_49",256,1,22,1,1.296000242
"1277","5f3d220abc6c4a0318e672f8","JN_49",257,1,4,1,1.252000093
"1278","5f3d220abc6c4a0318e672f8","JN_49",260,1,3,1,0.870000124
"1279","5f3d220abc6c4a0318e672f8","JN_49",288,1,6,1,0.696000099
"1280","5f3d220abc6c4a0318e672f8","JN_49",301,1,21,1,0.825999975
"1281","5f3d220abc6c4a0318e672f8","JN_49",303,1,28,1,0.505000114
"1282","5c377cfdb616d10001dd32ff","JN_5",9,1,5,1,1.271000147
"1283","5c377cfdb616d10001dd32ff","JN_5",23,1,2,1,2.115999937
"1284","5c377cfdb616d10001dd32ff","JN_5",46,1,18,1,1.516999722
"1285","5c377cfdb616d10001dd32ff","JN_5",47,1,4,1,1.617999792
"1286","5c377cfdb616d10001dd32ff","JN_5",86,1,5,1,2.301999807
"1287","5c377cfdb616d10001dd32ff","JN_5",87,1,19,1,1.953000069
"1288","5c377cfdb616d10001dd32ff","JN_5",90,1,6,1,2.302000046
"1289","5c377cfdb616d10001dd32ff","JN_5",115,1,3,1,2.184000015
"1290","5c377cfdb616d10001dd32ff","JN_5",127,1,39,1,1.869999886
"1291","5c377cfdb616d10001dd32ff","JN_5",174,1,20,1,2.421000004
"1292","5c377cfdb616d10001dd32ff","JN_5",179,1,2,1,4.332999945
"1293","5c377cfdb616d10001dd32ff","JN_5",181,1,3,1,2.468999863
"1294","5c377cfdb616d10001dd32ff","JN_5",192,1,30,1,1.878999949
"1295","5c377cfdb616d10001dd32ff","JN_5",221,1,33,1,1.530999899
"1296","5c377cfdb616d10001dd32ff","JN_5",256,1,12,1,3.128000021
"1297","5c377cfdb616d10001dd32ff","JN_5",257,1,8,1,1.734999895
"1298","5c377cfdb616d10001dd32ff","JN_5",283,1,10,1,1.551999807
"1299","5c377cfdb616d10001dd32ff","JN_5",292,1,7,1,2.22300005
"1300","5c377cfdb616d10001dd32ff","JN_5",295,1,32,1,1.740999937
"1301","5c377cfdb616d10001dd32ff","JN_5",314,1,28,1,1.919999838
"1302","5f4545cce9618d0f3d9cad2c","JN_50",4,1,28,1,2.048000097
"1303","5f4545cce9618d0f3d9cad2c","JN_50",8,1,4,1,1.633000135
"1304","5f4545cce9618d0f3d9cad2c","JN_50",9,1,15,1,1.611000061
"1305","5f4545cce9618d0f3d9cad2c","JN_50",11,1,29,1,1.626999855
"1306","5f4545cce9618d0f3d9cad2c","JN_50",13,1,1,1,1.326999903
"1307","5f4545cce9618d0f3d9cad2c","JN_50",15,1,13,1,1.680000067
"1308","5f4545cce9618d0f3d9cad2c","JN_50",40,1,17,1,1.491000175
"1309","5f4545cce9618d0f3d9cad2c","JN_50",45,1,19,1,1.169999838
"1310","5f4545cce9618d0f3d9cad2c","JN_50",53,1,3,1,1.418000221
"1311","5f4545cce9618d0f3d9cad2c","JN_50",54,1,20,1,1.625999928
"1312","5f4545cce9618d0f3d9cad2c","JN_50",62,1,32,1,1.377000093
"1313","5f4545cce9618d0f3d9cad2c","JN_50",73,1,38,1,1.297999859
"1314","5f4545cce9618d0f3d9cad2c","JN_50",81,1,26,1,1.29399991
"1315","5f4545cce9618d0f3d9cad2c","JN_50",97,1,33,1,1.559999943
"1316","5f4545cce9618d0f3d9cad2c","JN_50",107,1,34,1,1.107999802
"1317","5f4545cce9618d0f3d9cad2c","JN_50",110,1,40,1,1.411999941
"1318","5f4545cce9618d0f3d9cad2c","JN_50",117,1,2,1,1.424999952
"1319","5f4545cce9618d0f3d9cad2c","JN_50",124,1,5,1,1.313999891
"1320","5f4545cce9618d0f3d9cad2c","JN_50",132,1,5,1,1.959000111
"1321","5f4545cce9618d0f3d9cad2c","JN_50",208,1,18,1,1.845000029
"1322","5f4545cce9618d0f3d9cad2c","JN_50",214,1,11,1,1.29399991
"1323","5f4545cce9618d0f3d9cad2c","JN_50",218,1,2,1,1.440999985
"1324","5f4545cce9618d0f3d9cad2c","JN_50",247,1,39,1,1.378000021
"1325","5f4545cce9618d0f3d9cad2c","JN_50",254,1,7,1,1.441999912
"1326","5f4545cce9618d0f3d9cad2c","JN_50",258,1,10,1,2.093999863
"1327","5f4545cce9618d0f3d9cad2c","JN_50",283,1,21,1,1.380000114
"1328","5f4545cce9618d0f3d9cad2c","JN_50",288,1,8,1,1.491999865
"1329","5f4545cce9618d0f3d9cad2c","JN_50",296,1,9,1,1.596999884
"1330","5f4545cce9618d0f3d9cad2c","JN_50",315,1,35,1,1.646999836
"1331","5f4699e88ed08d02e65b2240","JN_51",5,1,16,1,2.174000025
"1332","5f4699e88ed08d02e65b2240","JN_51",15,1,39,1,2.160999775
"1333","5f4699e88ed08d02e65b2240","JN_51",22,1,1,1,1.66899991
"1334","5f4699e88ed08d02e65b2240","JN_51",44,1,33,1,1.919999838
"1335","5f4699e88ed08d02e65b2240","JN_51",54,1,40,1,1.545000076
"1336","5f4699e88ed08d02e65b2240","JN_51",68,1,24,1,2.108999968
"1337","5f4699e88ed08d02e65b2240","JN_51",94,1,25,1,1.947999954
"1338","5f4699e88ed08d02e65b2240","JN_51",128,1,30,1,1.828999758
"1339","5f4699e88ed08d02e65b2240","JN_51",130,1,36,1,2.519999981
"1340","5f4699e88ed08d02e65b2240","JN_51",134,1,37,1,1.780999899
"1341","5f4699e88ed08d02e65b2240","JN_51",135,1,6,1,1.977999926
"1342","5f4699e88ed08d02e65b2240","JN_51",140,1,9,1,2.454999924
"1343","5f4699e88ed08d02e65b2240","JN_51",156,1,4,1,2.486999989
"1344","5f4699e88ed08d02e65b2240","JN_51",161,1,28,1,2.431999922
"1345","5f4699e88ed08d02e65b2240","JN_51",171,1,22,1,2.096999884
"1346","5f4699e88ed08d02e65b2240","JN_51",173,1,5,1,1.944000006
"1347","5f4699e88ed08d02e65b2240","JN_51",189,1,8,1,1.736999989
"1348","5f4699e88ed08d02e65b2240","JN_51",192,1,27,1,1.652999878
"1349","5f4699e88ed08d02e65b2240","JN_51",239,1,3,1,1.686999798
"1350","5f4699e88ed08d02e65b2240","JN_51",245,1,19,1,2.264999866
"1351","5f4699e88ed08d02e65b2240","JN_51",254,1,10,1,3.937999964
"1352","5f4699e88ed08d02e65b2240","JN_51",258,1,1,1,3.410000086
"1353","5f4699e88ed08d02e65b2240","JN_51",259,1,5,1,5.724999905
"1354","5f4699e88ed08d02e65b2240","JN_51",262,1,15,1,2.947999954
"1355","5f4699e88ed08d02e65b2240","JN_51",273,1,20,1,1.95299983
"1356","5f4699e88ed08d02e65b2240","JN_51",287,1,34,1,1.737999916
"1357","5f4699e88ed08d02e65b2240","JN_51",290,1,13,1,1.718999863
"1358","5f4699e88ed08d02e65b2240","JN_51",299,1,32,1,2.336999893
"1359","5f4bc0f37c7b4479078f5ba9","JN_52",3,1,4,1,1.60800004
"1360","5f4bc0f37c7b4479078f5ba9","JN_52",31,1,6,1,1.225999832
"1361","5f4bc0f37c7b4479078f5ba9","JN_52",33,1,22,1,1.554999828
"1362","5f4bc0f37c7b4479078f5ba9","JN_52",38,1,19,1,1.423999786
"1363","5f4bc0f37c7b4479078f5ba9","JN_52",43,1,25,1,1.661000013
"1364","5f4bc0f37c7b4479078f5ba9","JN_52",83,1,34,1,0.787999868
"1365","5f4bc0f37c7b4479078f5ba9","JN_52",87,1,27,1,1.409999847
"1366","5f4bc0f37c7b4479078f5ba9","JN_52",115,1,12,1,0.823999882
"1367","5f4bc0f37c7b4479078f5ba9","JN_52",120,1,14,1,0.422999859
"1368","5f4bc0f37c7b4479078f5ba9","JN_52",122,1,38,1,0.909999847
"1369","5f4bc0f37c7b4479078f5ba9","JN_52",188,1,35,1,1.387999773
"1370","5f4bc0f37c7b4479078f5ba9","JN_52",195,1,20,1,1.701999903
"1371","5f4bc0f37c7b4479078f5ba9","JN_52",199,1,30,1,1.117999792
"1372","5f4bc0f37c7b4479078f5ba9","JN_52",215,1,5,1,0.86899972
"1373","5f4bc0f37c7b4479078f5ba9","JN_52",218,1,24,1,0.835999727
"1374","5f4bc0f37c7b4479078f5ba9","JN_52",243,1,21,1,0.970999956
"1375","5f4bc0f37c7b4479078f5ba9","JN_52",245,1,33,1,1.036999941
"1376","5f4bc0f37c7b4479078f5ba9","JN_52",246,1,7,1,1.759999752
"1377","5f4bc0f37c7b4479078f5ba9","JN_52",261,1,10,1,0.82799983
"1378","5f4bc0f37c7b4479078f5ba9","JN_52",276,1,2,1,1.240999937
"1379","5f4bc0f37c7b4479078f5ba9","JN_52",291,1,9,1,1.339999914
"1380","5f4bc0f37c7b4479078f5ba9","JN_52",296,1,3,1,0.888999939
"1381","5f4bc0f37c7b4479078f5ba9","JN_52",315,1,26,1,1.170999765
"1382","5f4f780bdc3f2501cb3b995e","JN_53",7,1,5,1,1.916000366
"1383","5f4f780bdc3f2501cb3b995e","JN_53",9,1,26,1,1.829000235
"1384","5f4f780bdc3f2501cb3b995e","JN_53",11,1,2,1,1.685000181
"1385","5f4f780bdc3f2501cb3b995e","JN_53",12,1,30,1,1.817000151
"1386","5f4f780bdc3f2501cb3b995e","JN_53",15,1,28,1,1.889000177
"1387","5f4f780bdc3f2501cb3b995e","JN_53",17,1,1,1,2.106000185
"1388","5f4f780bdc3f2501cb3b995e","JN_53",19,1,3,1,1.68900013
"1389","5f4f780bdc3f2501cb3b995e","JN_53",26,1,25,1,1.63800025
"1390","5f4f780bdc3f2501cb3b995e","JN_53",55,1,16,1,2.005000353
"1391","5f4f780bdc3f2501cb3b995e","JN_53",74,1,36,1,1.400000095
"1392","5f4f780bdc3f2501cb3b995e","JN_53",83,1,9,1,2.599000216
"1393","5f4f780bdc3f2501cb3b995e","JN_53",87,1,20,1,2.166000128
"1394","5f4f780bdc3f2501cb3b995e","JN_53",94,1,32,1,1.772000313
"1395","5f4f780bdc3f2501cb3b995e","JN_53",111,1,13,1,1.536000252
"1396","5f4f780bdc3f2501cb3b995e","JN_53",163,1,19,1,1.852000237
"1397","5f4f780bdc3f2501cb3b995e","JN_53",164,1,37,1,1.505000353
"1398","5f4f780bdc3f2501cb3b995e","JN_53",172,1,22,1,2.751000166
"1399","5f4f780bdc3f2501cb3b995e","JN_53",186,1,35,1,1.498000145
"1400","5f4f780bdc3f2501cb3b995e","JN_53",194,1,24,1,2.082999945
"1401","5f4f780bdc3f2501cb3b995e","JN_53",217,1,8,1,1.882000208
"1402","5f4f780bdc3f2501cb3b995e","JN_53",242,1,10,1,2.053000212
"1403","5f4f780bdc3f2501cb3b995e","JN_53",256,1,4,1,1.68200016
"1404","5f4f780bdc3f2501cb3b995e","JN_53",283,1,7,1,1.485000134
"1405","5f4f780bdc3f2501cb3b995e","JN_53",296,1,6,1,1.352000237
"1406","5f4f780bdc3f2501cb3b995e","JN_53",306,1,27,1,1.302999973
"1407","5f4f780bdc3f2501cb3b995e","JN_53",310,1,33,1,2.552000284
"1408","5f58d0f9a1593b0660e2797a","JN_54",4,1,7,1,1.623000145
"1409","5f58d0f9a1593b0660e2797a","JN_54",34,1,23,1,2.12100029
"1410","5f58d0f9a1593b0660e2797a","JN_54",41,1,4,1,0.352000237
"1411","5f58d0f9a1593b0660e2797a","JN_54",42,1,38,1,0.604000092
"1412","5f58d0f9a1593b0660e2797a","JN_54",43,1,33,1,1.086000204
"1413","5f58d0f9a1593b0660e2797a","JN_54",49,1,4,1,0.437000275
"1414","5f58d0f9a1593b0660e2797a","JN_54",52,1,21,1,0.90500021
"1415","5f58d0f9a1593b0660e2797a","JN_54",81,1,31,1,1.337000132
"1416","5f58d0f9a1593b0660e2797a","JN_54",112,1,5,1,1.520000219
"1417","5f58d0f9a1593b0660e2797a","JN_54",128,1,15,1,1.335000277
"1418","5f58d0f9a1593b0660e2797a","JN_54",142,1,26,1,1.539000273
"1419","5f58d0f9a1593b0660e2797a","JN_54",148,1,8,1,1.417000055
"1420","5f58d0f9a1593b0660e2797a","JN_54",159,1,2,1,0.821000099
"1421","5f58d0f9a1593b0660e2797a","JN_54",162,1,36,1,0.968000174
"1422","5f58d0f9a1593b0660e2797a","JN_54",169,1,13,1,1.376000166
"1423","5f58d0f9a1593b0660e2797a","JN_54",176,1,12,1,1.910000086
"1424","5f58d0f9a1593b0660e2797a","JN_54",183,1,20,1,1.302000046
"1425","5f58d0f9a1593b0660e2797a","JN_54",191,1,16,1,1.887000084
"1426","5f58d0f9a1593b0660e2797a","JN_54",197,1,30,1,1.685000181
"1427","5f58d0f9a1593b0660e2797a","JN_54",198,1,2,1,1.368000269
"1428","5f58d0f9a1593b0660e2797a","JN_54",206,1,9,1,1.869000196
"1429","5f58d0f9a1593b0660e2797a","JN_54",218,1,28,1,1.353000164
"1430","5f58d0f9a1593b0660e2797a","JN_54",227,1,10,1,1.185000181
"1431","5f58d0f9a1593b0660e2797a","JN_54",241,1,40,1,1.452000141
"1432","5f58d0f9a1593b0660e2797a","JN_54",243,1,32,1,1.670000315
"1433","5f58d0f9a1593b0660e2797a","JN_54",273,1,35,1,0.769000292
"1434","5f58d0f9a1593b0660e2797a","JN_54",274,1,5,1,1.104000092
"1435","5f58d0f9a1593b0660e2797a","JN_54",282,1,17,1,1.269000292
"1436","5f58d0f9a1593b0660e2797a","JN_54",287,1,34,1,1.188000202
"1437","5f58d0f9a1593b0660e2797a","JN_54",288,1,29,1,1.503000021
"1438","5f58d0f9a1593b0660e2797a","JN_54",294,1,18,1,1.335000038
"1439","5f58d0f9a1593b0660e2797a","JN_54",308,1,1,1,0.857000113
"1440","5f58d0f9a1593b0660e2797a","JN_54",310,1,37,1,1.006000042
"1441","5f58f14e5ac8940b01741ef1","JN_55",12,1,9,1,1.837000132
"1442","5f58f14e5ac8940b01741ef1","JN_55",23,1,32,1,1.554999828
"1443","5f58f14e5ac8940b01741ef1","JN_55",47,1,33,1,1.36500001
"1444","5f58f14e5ac8940b01741ef1","JN_55",65,1,34,1,1.5849998
"1445","5f58f14e5ac8940b01741ef1","JN_55",103,1,19,1,2.319000006
"1446","5f58f14e5ac8940b01741ef1","JN_55",121,1,2,1,2.279999733
"1447","5f58f14e5ac8940b01741ef1","JN_55",134,1,24,1,1.564999819
"1448","5f58f14e5ac8940b01741ef1","JN_55",162,1,28,1,1.419999838
"1449","5f58f14e5ac8940b01741ef1","JN_55",174,1,18,1,1.582000017
"1450","5f58f14e5ac8940b01741ef1","JN_55",199,1,27,1,1.381000042
"1451","5f58f14e5ac8940b01741ef1","JN_55",210,1,13,1,1.517999887
"1452","5f58f14e5ac8940b01741ef1","JN_55",229,1,29,1,1.819999933
"1453","5f58f14e5ac8940b01741ef1","JN_55",258,1,3,1,2.354000092
"1454","5f58f14e5ac8940b01741ef1","JN_55",286,1,20,1,1.342000008
"1455","5f58f14e5ac8940b01741ef1","JN_55",290,1,26,1,0.907999992
"1456","5f58f14e5ac8940b01741ef1","JN_55",292,1,4,1,2.393999815
"1457","5f58f14e5ac8940b01741ef1","JN_55",297,1,10,1,1.897000074
"1458","5f58f14e5ac8940b01741ef1","JN_55",298,1,16,1,1.49000001
"1459","5f58f14e5ac8940b01741ef1","JN_55",310,1,25,1,1.257999897
"1460","5f5f6e9b003b2a0217bba847","JN_56",6,1,7,1,1.535000086
"1461","5f5f6e9b003b2a0217bba847","JN_56",17,1,36,1,1.585000038
"1462","5f5f6e9b003b2a0217bba847","JN_56",28,1,2,1,1.308000088
"1463","5f5f6e9b003b2a0217bba847","JN_56",59,1,26,1,2.035000086
"1464","5f5f6e9b003b2a0217bba847","JN_56",61,1,19,1,1.501000166
"1465","5f5f6e9b003b2a0217bba847","JN_56",67,1,3,1,2.385000229
"1466","5f5f6e9b003b2a0217bba847","JN_56",71,1,35,1,1.481000185
"1467","5f5f6e9b003b2a0217bba847","JN_56",89,1,32,1,1.592000008
"1468","5f5f6e9b003b2a0217bba847","JN_56",96,1,39,1,1.813000202
"1469","5f5f6e9b003b2a0217bba847","JN_56",102,1,18,1,1.586000204
"1470","5f5f6e9b003b2a0217bba847","JN_56",112,1,12,1,2.054000139
"1471","5f5f6e9b003b2a0217bba847","JN_56",118,1,4,1,1.404999971
"1472","5f5f6e9b003b2a0217bba847","JN_56",134,1,16,1,2.090000153
"1473","5f5f6e9b003b2a0217bba847","JN_56",139,1,34,1,1.774000168
"1474","5f5f6e9b003b2a0217bba847","JN_56",140,1,2,1,1.673000097
"1475","5f5f6e9b003b2a0217bba847","JN_56",146,1,25,1,1.623000145
"1476","5f5f6e9b003b2a0217bba847","JN_56",171,1,5,1,1.236000299
"1477","5f5f6e9b003b2a0217bba847","JN_56",181,1,31,1,2.345000267
"1478","5f5f6e9b003b2a0217bba847","JN_56",190,1,28,1,1.30700016
"1479","5f5f6e9b003b2a0217bba847","JN_56",209,1,14,1,1.375
"1480","5f5f6e9b003b2a0217bba847","JN_56",210,1,23,1,1.361000061
"1481","5f5f6e9b003b2a0217bba847","JN_56",212,1,21,1,1.568000078
"1482","5f5f6e9b003b2a0217bba847","JN_56",220,1,38,1,1.423000336
"1483","5f5f6e9b003b2a0217bba847","JN_56",241,1,6,1,2.944000244
"1484","5f5f6e9b003b2a0217bba847","JN_56",243,1,30,1,1.38100028
"1485","5f5f6e9b003b2a0217bba847","JN_56",258,1,5,1,1.598000288
"1486","5f5f6e9b003b2a0217bba847","JN_56",275,1,15,1,1.702000141
"1487","5f5f6e9b003b2a0217bba847","JN_56",293,1,11,1,1.909000158
"1488","5f5f6e9b003b2a0217bba847","JN_56",297,1,33,1,1.677999973
"1489","5f5f6e9b003b2a0217bba847","JN_56",300,1,40,1,1.339000225
"1490","5f5f6e9b003b2a0217bba847","JN_56",301,1,9,1,1.489000082
"1491","5f5f6e9b003b2a0217bba847","JN_56",310,1,3,1,1.639000177
"1492","5f5f8c538c9075064b38315f","JN_57",8,1,18,1,1.35800004
"1493","5f5f8c538c9075064b38315f","JN_57",31,1,5,1,1.613000154
"1494","5f5f8c538c9075064b38315f","JN_57",34,1,40,1,1.641000032
"1495","5f5f8c538c9075064b38315f","JN_57",72,1,35,1,2.412999868
"1496","5f5f8c538c9075064b38315f","JN_57",77,1,30,1,1.690000057
"1497","5f5f8c538c9075064b38315f","JN_57",93,1,34,1,2.67599988
"1498","5f5f8c538c9075064b38315f","JN_57",102,1,10,1,1.69299984
"1499","5f5f8c538c9075064b38315f","JN_57",107,1,1,1,1.475999832
"1500","5f5f8c538c9075064b38315f","JN_57",110,1,9,1,1.508999825
"1501","5f5f8c538c9075064b38315f","JN_57",120,1,16,1,2.059999943
"1502","5f5f8c538c9075064b38315f","JN_57",121,1,12,1,1.864000082
"1503","5f5f8c538c9075064b38315f","JN_57",126,1,17,1,1.740999937
"1504","5f5f8c538c9075064b38315f","JN_57",128,1,22,1,2.007999897
"1505","5f5f8c538c9075064b38315f","JN_57",137,1,25,1,1.529999971
"1506","5f5f8c538c9075064b38315f","JN_57",180,1,5,1,1.443999767
"1507","5f5f8c538c9075064b38315f","JN_57",198,1,6,1,1.414000034
"1508","5f5f8c538c9075064b38315f","JN_57",206,1,13,1,1.809999943
"1509","5f5f8c538c9075064b38315f","JN_57",214,1,26,1,2.308000088
"1510","5f5f8c538c9075064b38315f","JN_57",224,1,19,1,1.849999905
"1511","5f5f8c538c9075064b38315f","JN_57",237,1,7,1,1.472999811
"1512","5f5f8c538c9075064b38315f","JN_57",238,1,15,1,1.624000072
"1513","5f5f8c538c9075064b38315f","JN_57",258,1,32,1,1.576999903
"1514","5f5f8c538c9075064b38315f","JN_57",260,1,3,1,1.379999876
"1515","5f5f8c538c9075064b38315f","JN_57",265,1,2,1,1.557999849
"1516","5f5f8c538c9075064b38315f","JN_57",282,1,33,1,1.795999765
"1517","5f5f8c538c9075064b38315f","JN_57",286,1,3,1,1.473999977
"1518","5f5f8c538c9075064b38315f","JN_57",298,1,28,1,1.82400012
"1519","5f633b9cefb7743ed669dbe9","JN_58",22,1,37,1,1.71600008
"1520","5f633b9cefb7743ed669dbe9","JN_58",28,1,16,1,1.353000164
"1521","5f633b9cefb7743ed669dbe9","JN_58",32,1,27,1,1.788000107
"1522","5f633b9cefb7743ed669dbe9","JN_58",46,1,35,1,2.03000021
"1523","5f633b9cefb7743ed669dbe9","JN_58",63,1,3,1,2.071000338
"1524","5f633b9cefb7743ed669dbe9","JN_58",78,1,2,1,2.070000172
"1525","5f633b9cefb7743ed669dbe9","JN_58",88,1,20,1,1.742000103
"1526","5f633b9cefb7743ed669dbe9","JN_58",101,1,40,1,1.34100008
"1527","5f633b9cefb7743ed669dbe9","JN_58",112,1,14,1,1.482000113
"1528","5f633b9cefb7743ed669dbe9","JN_58",121,1,39,1,1.703999996
"1529","5f633b9cefb7743ed669dbe9","JN_58",127,1,26,1,1.550000191
"1530","5f633b9cefb7743ed669dbe9","JN_58",130,1,24,1,1.488000154
"1531","5f633b9cefb7743ed669dbe9","JN_58",150,1,6,1,3.861000299
"1532","5f633b9cefb7743ed669dbe9","JN_58",153,1,18,1,1.6650002
"1533","5f633b9cefb7743ed669dbe9","JN_58",157,1,32,1,2.100000143
"1534","5f633b9cefb7743ed669dbe9","JN_58",170,1,25,1,1.429000139
"1535","5f633b9cefb7743ed669dbe9","JN_58",175,1,4,1,1.460000277
"1536","5f633b9cefb7743ed669dbe9","JN_58",179,1,31,1,1.637000084
"1537","5f633b9cefb7743ed669dbe9","JN_58",185,1,11,1,2.657000303
"1538","5f633b9cefb7743ed669dbe9","JN_58",188,1,2,1,1.477000237
"1539","5f633b9cefb7743ed669dbe9","JN_58",198,1,30,1,2.221000195
"1540","5f633b9cefb7743ed669dbe9","JN_58",212,1,22,1,1.772000313
"1541","5f633b9cefb7743ed669dbe9","JN_58",216,1,12,1,1.54700017
"1542","5f633b9cefb7743ed669dbe9","JN_58",223,1,15,1,1.832000256
"1543","5f633b9cefb7743ed669dbe9","JN_58",226,1,21,1,1.595999956
"1544","5f633b9cefb7743ed669dbe9","JN_58",228,1,5,1,1.684000254
"1545","5f633b9cefb7743ed669dbe9","JN_58",231,1,9,1,1.56400013
"1546","5f633b9cefb7743ed669dbe9","JN_58",250,1,33,1,2.0400002
"1547","5f633b9cefb7743ed669dbe9","JN_58",263,1,13,1,1.940000296
"1548","5f633b9cefb7743ed669dbe9","JN_58",282,1,10,1,1.907000303
"1549","5f633b9cefb7743ed669dbe9","JN_58",288,1,19,1,1.593000174
"1550","5f633b9cefb7743ed669dbe9","JN_58",292,1,29,1,2.016000271
"1551","5f633b9cefb7743ed669dbe9","JN_58",298,1,23,1,2.068000078
"1552","5f633b9cefb7743ed669dbe9","JN_58",301,1,7,1,1.367000103
"1553","5f633b9cefb7743ed669dbe9","JN_58",305,1,1,1,2.014000177
"1554","5f6c7839792562011071c3d6","JN_59",6,1,38,1,1.534000158
"1555","5f6c7839792562011071c3d6","JN_59",7,1,15,1,1.334000111
"1556","5f6c7839792562011071c3d6","JN_59",24,1,1,1,1.57400012
"1557","5f6c7839792562011071c3d6","JN_59",27,1,35,1,1.773999929
"1558","5f6c7839792562011071c3d6","JN_59",33,1,11,1,1.747999907
"1559","5f6c7839792562011071c3d6","JN_59",36,1,12,1,1.735000134
"1560","5f6c7839792562011071c3d6","JN_59",40,1,36,1,1.467999935
"1561","5f6c7839792562011071c3d6","JN_59",50,1,21,1,1.361000061
"1562","5f6c7839792562011071c3d6","JN_59",69,1,2,1,1.427000046
"1563","5f6c7839792562011071c3d6","JN_59",81,1,25,1,1.480999947
"1564","5f6c7839792562011071c3d6","JN_59",86,1,26,1,1.414000034
"1565","5f6c7839792562011071c3d6","JN_59",93,1,30,1,1.520999908
"1566","5f6c7839792562011071c3d6","JN_59",96,1,4,1,1.548000097
"1567","5f6c7839792562011071c3d6","JN_59",104,1,19,1,1.440999985
"1568","5f6c7839792562011071c3d6","JN_59",111,1,1,1,1.519999981
"1569","5f6c7839792562011071c3d6","JN_59",116,1,31,1,1.640999794
"1570","5f6c7839792562011071c3d6","JN_59",138,1,27,1,1.0400002
"1571","5f6c7839792562011071c3d6","JN_59",144,1,34,1,1.507999897
"1572","5f6c7839792562011071c3d6","JN_59",160,1,10,1,1.29399991
"1573","5f6c7839792562011071c3d6","JN_59",165,1,13,1,1.322000027
"1574","5f6c7839792562011071c3d6","JN_59",167,1,17,1,1.628000021
"1575","5f6c7839792562011071c3d6","JN_59",174,1,3,1,1.334000111
"1576","5f6c7839792562011071c3d6","JN_59",190,1,32,1,1.295000076
"1577","5f6c7839792562011071c3d6","JN_59",192,1,33,1,1.947999954
